instr_text,textStim,textStimPos,correKey,LearnC_repeatIF.thisRepN,LearnC_repeatIF.thisTrialN,LearnC_repeatIF.thisN,LearnC_repeatIF.thisIndex,Learn_com_24x1.thisRepN,Learn_com_24x1.thisTrialN,Learn_com_24x1.thisN,Learn_com_24x1.thisIndex,TestC_repeatIF.thisRepN,TestC_repeatIF.thisTrialN,TestC_repeatIF.thisN,TestC_repeatIF.thisIndex,Test_com_24x6.thisRepN,Test_com_24x6.thisTrialN,Test_com_24x6.thisN,Test_com_24x6.thisIndex,LearnI_repeatIF.thisRepN,LearnI_repeatIF.thisTrialN,LearnI_repeatIF.thisN,LearnI_repeatIF.thisIndex,Learn_incom_24x1.thisRepN,Learn_incom_24x1.thisTrialN,Learn_incom_24x1.thisN,Learn_incom_24x1.thisIndex,TestI_repeatIF.thisRepN,TestI_repeatIF.thisTrialN,TestI_repeatIF.thisN,TestI_repeatIF.thisIndex,Test_incom_24x6.thisRepN,Test_incom_24x6.thisTrialN,Test_incom_24x6.thisN,Test_incom_24x6.thisIndex,instr_start.started,key_start.started,key_start.keys,key_start.rt,instr_above.started,Stim_R.started,lines_R.started,note1_R.started,note2_R.started,instr_R.started,Stim_L.started,lines_L.started,note1_L.started,note2_L.started,instr_L.started,key_continue.started,instr_contin.started,key_continue.keys,key_continue.rt,instr_ask.started,ask_learn.started,ask_learn.keys,ask_learn.rt,Stim_learn.started,lines_learn.started,note1_learn.started,note2_learn.started,Resp_learn.started,Resp_learn.keys,Resp_learn.corr,Resp_learn.rt,text_judge.started,text_judge.stopped,congra_ask.started,ask_test.started,ask_test.keys,ask_test.rt,Stim.started,lines.started,note2.started,note1.started,key_resp.started,key_resp.keys,key_resp.corr,key_resp.rt,text_fb.started,text_fb.stopped,above_instr.started,R_stim.started,R_lines.started,R_note1.started,R_note2.started,R_instr.started,L_stim.started,L_lines.started,L_note1.started,L_note2.started,L_instr.started,continue_key.started,contin_instr.started,continue_key.keys,continue_key.rt,text_jd2.started,text_jd2.stopped,text_fb2.started,text_fb2.stopped,text_end.started,text_end.stopped,participant,gender,education,age,session,date,expName,psychopyVersion,frameRate,
,,,,,,,,,,,,,,,,,,,,,,,,,,,,,,,,,,,,47.38078860001406,47.38078860001406,space,0.6565901000285521,,,,,,,,,,,,,,,,,,,,,,,,,,,,,,,,,,,,,,,,,,,,,,,,,,,,,,,,,,,,,,,,,230624_lkx,女,研究生及以上,21,001,2023-06-24_16h13.25.381,nalin_IRAP,2023.1.2,120.13094268969822,
,,,,,,,,,,,,,,,,,,,,,,,,,,,,,,,,,,,,,,,,48.063419400015846,48.063419400015846,48.063419400015846,48.063419400015846,48.063419400015846,48.063419400015846,48.063419400015846,48.063419400015846,48.063419400015846,48.063419400015846,48.063419400015846,48.063419400015846,48.063419400015846,space,5.201471199980006,,,,,,,,,,,,,,,,,,,,,,,,,,,,,,,,,,,,,,,,,,,,,,,,,,230624_lkx,女,研究生及以上,21,001,2023-06-24_16h13.25.381,nalin_IRAP,2023.1.2,120.13094268969822,
~请按空格键进入练习阶段~,欣喜,"(0.0, -0.15)",j,0,0,0,0,0,0,0,15,,,,,,,,,,,,,,,,,,,,,,,,,,,,,,,,,,,,,,,,,,,,53.34243030002108,53.34243030002108,space,1.4570766999968328,54.85845960001461,54.85845960001461,54.85845960001461,54.85845960001461,54.85845960001461,j,1,4.087110199965537,58.96556500002043,,,,,,,,,,,,,,,,,,,,,,,,,,,,,,,,,,,,,230624_lkx,女,研究生及以上,21,001,2023-06-24_16h13.25.381,nalin_IRAP,2023.1.2,120.13094268969822,
~请按空格键进入练习阶段~,难过,"(0.0, 0.3)",j,0,0,0,0,0,1,1,8,,,,,,,,,,,,,,,,,,,,,,,,,,,,,,,,,,,,,,,,,,,,,,,,59.47321240004385,59.47321240004385,59.47321240004385,59.47321240004385,59.47321240004385,j,1,1.426739600021392,60.91594710003119,,,,,,,,,,,,,,,,,,,,,,,,,,,,,,,,,,,,,230624_lkx,女,研究生及以上,21,001,2023-06-24_16h13.25.381,nalin_IRAP,2023.1.2,120.13094268969822,
~请按空格键进入练习阶段~,伤心,"(0.0, 0.3)",j,0,0,0,0,0,2,2,6,,,,,,,,,,,,,,,,,,,,,,,,,,,,,,,,,,,,,,,,,,,,,,,,61.43325920001371,61.43325920001371,61.43325920001371,61.43325920001371,61.43325920001371,j,1,0.5755251999944448,62.022846800042316,62.52667940000538,,,,,,,,,,,,,,,,,,,,,,,,,,,,,,,,,,,,230624_lkx,女,研究生及以上,21,001,2023-06-24_16h13.25.381,nalin_IRAP,2023.1.2,120.13094268969822,
~请按空格键进入练习阶段~,愉快,"(0.0, -0.15)",j,0,0,0,0,0,3,3,17,,,,,,,,,,,,,,,,,,,,,,,,,,,,,,,,,,,,,,,,,,,,,,,,62.52667940000538,62.52667940000538,62.52667940000538,62.52667940000538,62.52667940000538,j,1,0.9340006000129506,63.47343740001088,63.976154200034216,,,,,,,,,,,,,,,,,,,,,,,,,,,,,,,,,,,,230624_lkx,女,研究生及以上,21,001,2023-06-24_16h13.25.381,nalin_IRAP,2023.1.2,120.13094268969822,
~请按空格键进入练习阶段~,伤心,"(0.0, -0.15)",f,0,0,0,0,0,4,4,18,,,,,,,,,,,,,,,,,,,,,,,,,,,,,,,,,,,,,,,,,,,,,,,,63.976154200034216,63.976154200034216,63.976154200034216,63.976154200034216,63.976154200034216,f,1,1.227644600032363,65.21441780001624,65.72264730004827,,,,,,,,,,,,,,,,,,,,,,,,,,,,,,,,,,,,230624_lkx,女,研究生及以上,21,001,2023-06-24_16h13.25.381,nalin_IRAP,2023.1.2,120.13094268969822,
~请按空格键进入练习阶段~,高兴,"(0.0, -0.15)",j,0,0,0,0,0,5,5,12,,,,,,,,,,,,,,,,,,,,,,,,,,,,,,,,,,,,,,,,,,,,,,,,65.72264730004827,65.72264730004827,65.72264730004827,65.72264730004827,65.72264730004827,j,1,0.6789775000070222,66.41908660001354,,,,,,,,,,,,,,,,,,,,,,,,,,,,,,,,,,,,,230624_lkx,女,研究生及以上,21,001,2023-06-24_16h13.25.381,nalin_IRAP,2023.1.2,120.13094268969822,
~请按空格键进入练习阶段~,忧郁,"(0.0, 0.3)",j,0,0,0,0,0,6,6,10,,,,,,,,,,,,,,,,,,,,,,,,,,,,,,,,,,,,,,,,,,,,,,,,66.9529099999927,66.9529099999927,66.9529099999927,66.9529099999927,66.9529099999927,j,1,0.986975000007078,67.94765780004673,68.4507248000009,,,,,,,,,,,,,,,,,,,,,,,,,,,,,,,,,,,,230624_lkx,女,研究生及以上,21,001,2023-06-24_16h13.25.381,nalin_IRAP,2023.1.2,120.13094268969822,
~请按空格键进入练习阶段~,高兴,"(0.0, 0.3)",f,0,0,0,0,0,7,7,0,,,,,,,,,,,,,,,,,,,,,,,,,,,,,,,,,,,,,,,,,,,,,,,,68.4507248000009,68.4507248000009,68.4507248000009,68.4507248000009,68.4507248000009,f,1,0.6573982000118122,69.12281620001886,69.63260100001935,,,,,,,,,,,,,,,,,,,,,,,,,,,,,,,,,,,,230624_lkx,女,研究生及以上,21,001,2023-06-24_16h13.25.381,nalin_IRAP,2023.1.2,120.13094268969822,
~请按空格键进入练习阶段~,悲伤,"(0.0, -0.15)",f,0,0,0,0,0,8,8,21,,,,,,,,,,,,,,,,,,,,,,,,,,,,,,,,,,,,,,,,,,,,,,,,69.63260100001935,69.63260100001935,69.63260100001935,69.63260100001935,69.63260100001935,f,1,3.086793700000271,72.73104800004512,73.23764880001545,,,,,,,,,,,,,,,,,,,,,,,,,,,,,,,,,,,,230624_lkx,女,研究生及以上,21,001,2023-06-24_16h13.25.381,nalin_IRAP,2023.1.2,120.13094268969822,
~请按空格键进入练习阶段~,喜悦,"(0.0, 0.3)",f,0,0,0,0,0,9,9,4,,,,,,,,,,,,,,,,,,,,,,,,,,,,,,,,,,,,,,,,,,,,,,,,73.23764880001545,73.23764880001545,73.23764880001545,73.23764880001545,73.23764880001545,f,1,0.5907703000120819,73.84008300001733,74.34371510002529,,,,,,,,,,,,,,,,,,,,,,,,,,,,,,,,,,,,230624_lkx,女,研究生及以上,21,001,2023-06-24_16h13.25.381,nalin_IRAP,2023.1.2,120.13094268969822,
~请按空格键进入练习阶段~,忧郁,"(0.0, -0.15)",f,0,0,0,0,0,10,10,22,,,,,,,,,,,,,,,,,,,,,,,,,,,,,,,,,,,,,,,,,,,,,,,,74.34371510002529,74.34371510002529,74.34371510002529,74.34371510002529,74.34371510002529,f,1,0.8202217000070959,75.17669330001809,,,,,,,,,,,,,,,,,,,,,,,,,,,,,,,,,,,,,230624_lkx,女,研究生及以上,21,001,2023-06-24_16h13.25.381,nalin_IRAP,2023.1.2,120.13094268969822,
~请按空格键进入练习阶段~,愉悦,"(0.0, 0.3)",f,0,0,0,0,0,11,11,2,,,,,,,,,,,,,,,,,,,,,,,,,,,,,,,,,,,,,,,,,,,,,,,,75.68426579999505,75.68426579999505,75.68426579999505,75.68426579999505,75.68426579999505,f,1,0.4782619000179693,76.17460880003637,,,,,,,,,,,,,,,,,,,,,,,,,,,,,,,,,,,,,230624_lkx,女,研究生及以上,21,001,2023-06-24_16h13.25.381,nalin_IRAP,2023.1.2,120.13094268969822,
~请按空格键进入练习阶段~,快乐,"(0.0, -0.15)",j,0,0,0,0,0,12,12,13,,,,,,,,,,,,,,,,,,,,,,,,,,,,,,,,,,,,,,,,,,,,,,,,76.6882969000144,76.6882969000144,76.6882969000144,76.6882969000144,76.6882969000144,j,1,0.632448399963323,77.33194850001018,77.83697330002906,,,,,,,,,,,,,,,,,,,,,,,,,,,,,,,,,,,,230624_lkx,女,研究生及以上,21,001,2023-06-24_16h13.25.381,nalin_IRAP,2023.1.2,120.13094268969822,
~请按空格键进入练习阶段~,愉悦,"(0.0, -0.15)",j,0,0,0,0,0,13,13,14,,,,,,,,,,,,,,,,,,,,,,,,,,,,,,,,,,,,,,,,,,,,,,,,77.83697330002906,77.83697330002906,77.83697330002906,77.83697330002906,77.83697330002906,j,1,0.6041697999462485,78.45159960002638,,,,,,,,,,,,,,,,,,,,,,,,,,,,,,,,,,,,,230624_lkx,女,研究生及以上,21,001,2023-06-24_16h13.25.381,nalin_IRAP,2023.1.2,120.13094268969822,
~请按空格键进入练习阶段~,失落,"(0.0, 0.3)",j,0,0,0,0,0,14,14,7,,,,,,,,,,,,,,,,,,,,,,,,,,,,,,,,,,,,,,,,,,,,,,,,78.98740899999393,78.98740899999393,78.98740899999393,78.98740899999393,78.98740899999393,j,1,1.6165708999615163,80.618077000021,,,,,,,,,,,,,,,,,,,,,,,,,,,,,,,,,,,,,230624_lkx,女,研究生及以上,21,001,2023-06-24_16h13.25.381,nalin_IRAP,2023.1.2,120.13094268969822,
~请按空格键进入练习阶段~,悲伤,"(0.0, 0.3)",j,0,0,0,0,0,15,15,9,,,,,,,,,,,,,,,,,,,,,,,,,,,,,,,,,,,,,,,,,,,,,,,,81.12614659999963,81.12614659999963,81.12614659999963,81.12614659999963,81.12614659999963,j,1,0.47872180002741516,81.6148855999927,82.11893490003422,,,,,,,,,,,,,,,,,,,,,,,,,,,,,,,,,,,,230624_lkx,女,研究生及以上,21,001,2023-06-24_16h13.25.381,nalin_IRAP,2023.1.2,120.13094268969822,
~请按空格键进入练习阶段~,难过,"(0.0, -0.15)",f,0,0,0,0,0,16,16,20,,,,,,,,,,,,,,,,,,,,,,,,,,,,,,,,,,,,,,,,,,,,,,,,82.11893490003422,82.11893490003422,82.11893490003422,82.11893490003422,82.11893490003422,f,1,1.6011812000069767,83.73169430001872,84.23540180001874,,,,,,,,,,,,,,,,,,,,,,,,,,,,,,,,,,,,230624_lkx,女,研究生及以上,21,001,2023-06-24_16h13.25.381,nalin_IRAP,2023.1.2,120.13094268969822,
~请按空格键进入练习阶段~,失落,"(0.0, -0.15)",f,0,0,0,0,0,17,17,19,,,,,,,,,,,,,,,,,,,,,,,,,,,,,,,,,,,,,,,,,,,,,,,,84.23540180001874,84.23540180001874,84.23540180001874,84.23540180001874,84.23540180001874,f,1,0.5614636999671347,84.80589140002849,85.33863210002892,,,,,,,,,,,,,,,,,,,,,,,,,,,,,,,,,,,,230624_lkx,女,研究生及以上,21,001,2023-06-24_16h13.25.381,nalin_IRAP,2023.1.2,120.13094268969822,
~请按空格键进入练习阶段~,愁苦,"(0.0, -0.15)",f,0,0,0,0,0,18,18,23,,,,,,,,,,,,,,,,,,,,,,,,,,,,,,,,,,,,,,,,,,,,,,,,85.33863210002892,85.33863210002892,85.33863210002892,85.33863210002892,85.33863210002892,f,1,0.4328247999656014,85.78111110004829,86.28695800004061,,,,,,,,,,,,,,,,,,,,,,,,,,,,,,,,,,,,230624_lkx,女,研究生及以上,21,001,2023-06-24_16h13.25.381,nalin_IRAP,2023.1.2,120.13094268969822,
~请按空格键进入练习阶段~,喜悦,"(0.0, -0.15)",j,0,0,0,0,0,19,19,16,,,,,,,,,,,,,,,,,,,,,,,,,,,,,,,,,,,,,,,,,,,,,,,,86.28695800004061,86.28695800004061,86.28695800004061,86.28695800004061,86.28695800004061,j,1,0.5579161000205204,86.85611870000139,87.42101779999211,,,,,,,,,,,,,,,,,,,,,,,,,,,,,,,,,,,,230624_lkx,女,研究生及以上,21,001,2023-06-24_16h13.25.381,nalin_IRAP,2023.1.2,120.13094268969822,
~请按空格键进入练习阶段~,,,,0,0,0,0,,,,,,,,,,,,,,,,,,,,,,,,,,,,,,,,,,,,,,,,,,,,,,,,,,,,,,,,,,,,,,,,,,,,,,,,,,,,,,,,,,,,,,,,,,,,,,,,,230624_lkx,女,研究生及以上,21,001,2023-06-24_16h13.25.381,nalin_IRAP,2023.1.2,120.13094268969822,
"恭喜，你已达成80%正确率，可以继续实验

~请按空格键进入测试阶段~",高兴,"(0.0, -0.15)",j,,,,,,,,,0,0,0,0,0,0,0,12,,,,,,,,,,,,,,,,,,,,,,,,,,,,,,,,,,,,,,,,,,,,,,,,,,87.42101779999211,87.42101779999211,space,1.5253199000144377,89.04797290003626,89.04797290003626,89.04797290003626,89.04797290003626,89.04797290003626,j,1,1.9493015999905765,91.00591440004064,91.51130460004788,,,,,,,,,,,,,,,,,,,,,,230624_lkx,女,研究生及以上,21,001,2023-06-24_16h13.25.381,nalin_IRAP,2023.1.2,120.13094268969822,
"恭喜，你已达成80%正确率，可以继续实验

~请按空格键进入测试阶段~",愉悦,"(0.0, 0.3)",f,,,,,,,,,0,0,0,0,0,1,1,2,,,,,,,,,,,,,,,,,,,,,,,,,,,,,,,,,,,,,,,,,,,,,,,,,,,,,,91.51130460004788,91.51130460004788,91.51130460004788,91.51130460004788,91.51130460004788,f,1,0.9661545000271872,92.48923690000083,92.99459400004707,,,,,,,,,,,,,,,,,,,,,,230624_lkx,女,研究生及以上,21,001,2023-06-24_16h13.25.381,nalin_IRAP,2023.1.2,120.13094268969822,
"恭喜，你已达成80%正确率，可以继续实验

~请按空格键进入测试阶段~",悲伤,"(0.0, 0.3)",j,,,,,,,,,0,0,0,0,0,2,2,9,,,,,,,,,,,,,,,,,,,,,,,,,,,,,,,,,,,,,,,,,,,,,,,,,,,,,,92.99459400004707,92.99459400004707,92.99459400004707,92.99459400004707,92.99459400004707,j,1,1.0064765999559313,94.01451060001273,94.51753140002256,,,,,,,,,,,,,,,,,,,,,,230624_lkx,女,研究生及以上,21,001,2023-06-24_16h13.25.381,nalin_IRAP,2023.1.2,120.13094268969822,
"恭喜，你已达成80%正确率，可以继续实验

~请按空格键进入测试阶段~",难过,"(0.0, -0.15)",f,,,,,,,,,0,0,0,0,0,3,3,20,,,,,,,,,,,,,,,,,,,,,,,,,,,,,,,,,,,,,,,,,,,,,,,,,,,,,,94.51753140002256,94.51753140002256,94.51753140002256,94.51753140002256,94.51753140002256,f,1,0.8249460999504663,95.35739360004663,,,,,,,,,,,,,,,,,,,,,,,230624_lkx,女,研究生及以上,21,001,2023-06-24_16h13.25.381,nalin_IRAP,2023.1.2,120.13094268969822,
"恭喜，你已达成80%正确率，可以继续实验

~请按空格键进入测试阶段~",伤心,"(0.0, 0.3)",j,,,,,,,,,0,0,0,0,0,4,4,6,,,,,,,,,,,,,,,,,,,,,,,,,,,,,,,,,,,,,,,,,,,,,,,,,,,,,,95.8672734000138,95.8672734000138,95.8672734000138,95.8672734000138,95.8672734000138,j,1,0.9859551000408828,96.86863909999374,,,,,,,,,,,,,,,,,,,,,,,230624_lkx,女,研究生及以上,21,001,2023-06-24_16h13.25.381,nalin_IRAP,2023.1.2,120.13094268969822,
"恭喜，你已达成80%正确率，可以继续实验

~请按空格键进入测试阶段~",愉悦,"(0.0, -0.15)",j,,,,,,,,,0,0,0,0,0,5,5,14,,,,,,,,,,,,,,,,,,,,,,,,,,,,,,,,,,,,,,,,,,,,,,,,,,,,,,97.37765280000167,97.37765280000167,97.37765280000167,97.37765280000167,97.37765280000167,j,1,6.23804339999333,103.63093580002896,104.13647180004045,,,,,,,,,,,,,,,,,,,,,,230624_lkx,女,研究生及以上,21,001,2023-06-24_16h13.25.381,nalin_IRAP,2023.1.2,120.13094268969822,
"恭喜，你已达成80%正确率，可以继续实验

~请按空格键进入测试阶段~",欣喜,"(0.0, 0.3)",f,,,,,,,,,0,0,0,0,0,6,6,3,,,,,,,,,,,,,,,,,,,,,,,,,,,,,,,,,,,,,,,,,,,,,,,,,,,,,,104.13647180004045,104.13647180004045,104.13647180004045,104.13647180004045,104.13647180004045,f,1,0.6286856000078842,104.78086920001078,105.28510610002559,,,,,,,,,,,,,,,,,,,,,,230624_lkx,女,研究生及以上,21,001,2023-06-24_16h13.25.381,nalin_IRAP,2023.1.2,120.13094268969822,
"恭喜，你已达成80%正确率，可以继续实验

~请按空格键进入测试阶段~",愁苦,"(0.0, -0.15)",f,,,,,,,,,0,0,0,0,0,7,7,23,,,,,,,,,,,,,,,,,,,,,,,,,,,,,,,,,,,,,,,,,,,,,,,,,,,,,,105.28510610002559,105.28510610002559,105.28510610002559,105.28510610002559,105.28510610002559,f,1,1.2036696000141092,106.49772089999169,107.00373200001195,,,,,,,,,,,,,,,,,,,,,,230624_lkx,女,研究生及以上,21,001,2023-06-24_16h13.25.381,nalin_IRAP,2023.1.2,120.13094268969822,
"恭喜，你已达成80%正确率，可以继续实验

~请按空格键进入测试阶段~",失落,"(0.0, 0.3)",j,,,,,,,,,0,0,0,0,0,8,8,7,,,,,,,,,,,,,,,,,,,,,,,,,,,,,,,,,,,,,,,,,,,,,,,,,,,,,,107.00373200001195,107.00373200001195,107.00373200001195,107.00373200001195,107.00373200001195,j,1,0.6286229999968782,107.6478396000457,108.15305140003329,,,,,,,,,,,,,,,,,,,,,,230624_lkx,女,研究生及以上,21,001,2023-06-24_16h13.25.381,nalin_IRAP,2023.1.2,120.13094268969822,
"恭喜，你已达成80%正确率，可以继续实验

~请按空格键进入测试阶段~",高兴,"(0.0, 0.3)",f,,,,,,,,,0,0,0,0,0,9,9,0,,,,,,,,,,,,,,,,,,,,,,,,,,,,,,,,,,,,,,,,,,,,,,,,,,,,,,108.15305140003329,108.15305140003329,108.15305140003329,108.15305140003329,108.15305140003329,f,1,0.5273576999898069,108.69106690003537,,,,,,,,,,,,,,,,,,,,,,,230624_lkx,女,研究生及以上,21,001,2023-06-24_16h13.25.381,nalin_IRAP,2023.1.2,120.13094268969822,
"恭喜，你已达成80%正确率，可以继续实验

~请按空格键进入测试阶段~",喜悦,"(0.0, -0.15)",j,,,,,,,,,0,0,0,0,0,10,10,16,,,,,,,,,,,,,,,,,,,,,,,,,,,,,,,,,,,,,,,,,,,,,,,,,,,,,,109.20306590001564,109.20306590001564,109.20306590001564,109.20306590001564,109.20306590001564,j,1,2.997933999984525,112.20935050002299,,,,,,,,,,,,,,,,,,,,,,,230624_lkx,女,研究生及以上,21,001,2023-06-24_16h13.25.381,nalin_IRAP,2023.1.2,120.13094268969822,
"恭喜，你已达成80%正确率，可以继续实验

~请按空格键进入测试阶段~",失落,"(0.0, -0.15)",f,,,,,,,,,0,0,0,0,0,11,11,19,,,,,,,,,,,,,,,,,,,,,,,,,,,,,,,,,,,,,,,,,,,,,,,,,,,,,,112.71818040002836,112.71818040002836,112.71818040002836,112.71818040002836,112.71818040002836,f,1,0.9048293000087142,113.63200340000913,,,,,,,,,,,,,,,,,,,,,,,230624_lkx,女,研究生及以上,21,001,2023-06-24_16h13.25.381,nalin_IRAP,2023.1.2,120.13094268969822,
"恭喜，你已达成80%正确率，可以继续实验

~请按空格键进入测试阶段~",愉快,"(0.0, -0.15)",j,,,,,,,,,0,0,0,0,0,12,12,17,,,,,,,,,,,,,,,,,,,,,,,,,,,,,,,,,,,,,,,,,,,,,,,,,,,,,,114.14368530001957,114.14368530001957,114.14368530001957,114.14368530001957,114.14368530001957,j,1,1.1227484999690205,115.28112560004229,115.78559440001845,,,,,,,,,,,,,,,,,,,,,,230624_lkx,女,研究生及以上,21,001,2023-06-24_16h13.25.381,nalin_IRAP,2023.1.2,120.13094268969822,
"恭喜，你已达成80%正确率，可以继续实验

~请按空格键进入测试阶段~",难过,"(0.0, 0.3)",j,,,,,,,,,0,0,0,0,0,13,13,8,,,,,,,,,,,,,,,,,,,,,,,,,,,,,,,,,,,,,,,,,,,,,,,,,,,,,,115.78559440001845,115.78559440001845,115.78559440001845,115.78559440001845,115.78559440001845,j,1,1.51230659999419,117.31043660000432,,,,,,,,,,,,,,,,,,,,,,,230624_lkx,女,研究生及以上,21,001,2023-06-24_16h13.25.381,nalin_IRAP,2023.1.2,120.13094268969822,
"恭喜，你已达成80%正确率，可以继续实验

~请按空格键进入测试阶段~",悲伤,"(0.0, -0.15)",f,,,,,,,,,0,0,0,0,0,14,14,21,,,,,,,,,,,,,,,,,,,,,,,,,,,,,,,,,,,,,,,,,,,,,,,,,,,,,,117.81906930002151,117.81906930002151,117.81906930002151,117.81906930002151,117.81906930002151,f,1,0.7245069000055082,118.55422900000121,119.06192800001008,,,,,,,,,,,,,,,,,,,,,,230624_lkx,女,研究生及以上,21,001,2023-06-24_16h13.25.381,nalin_IRAP,2023.1.2,120.13094268969822,
"恭喜，你已达成80%正确率，可以继续实验

~请按空格键进入测试阶段~",喜悦,"(0.0, 0.3)",f,,,,,,,,,0,0,0,0,0,15,15,4,,,,,,,,,,,,,,,,,,,,,,,,,,,,,,,,,,,,,,,,,,,,,,,,,,,,,,119.06192800001008,119.06192800001008,119.06192800001008,119.06192800001008,119.06192800001008,f,1,0.5835425000404939,119.659736600006,,,,,,,,,,,,,,,,,,,,,,,230624_lkx,女,研究生及以上,21,001,2023-06-24_16h13.25.381,nalin_IRAP,2023.1.2,120.13094268969822,
"恭喜，你已达成80%正确率，可以继续实验

~请按空格键进入测试阶段~",愉快,"(0.0, 0.3)",f,,,,,,,,,0,0,0,0,0,16,16,5,,,,,,,,,,,,,,,,,,,,,,,,,,,,,,,,,,,,,,,,,,,,,,,,,,,,,,120.16873420000775,120.16873420000775,120.16873420000775,120.16873420000775,120.16873420000775,f,1,0.3907924999948591,120.56995070003904,,,,,,,,,,,,,,,,,,,,,,,230624_lkx,女,研究生及以上,21,001,2023-06-24_16h13.25.381,nalin_IRAP,2023.1.2,120.13094268969822,
"恭喜，你已达成80%正确率，可以继续实验

~请按空格键进入测试阶段~",忧郁,"(0.0, -0.15)",f,,,,,,,,,0,0,0,0,0,17,17,22,,,,,,,,,,,,,,,,,,,,,,,,,,,,,,,,,,,,,,,,,,,,,,,,,,,,,,121.07726910000201,121.07726910000201,121.07726910000201,121.07726910000201,121.07726910000201,j,0,0.5741821000119671,121.66013780003414,,,,,,,,,,,,,,,,,,,,,,,230624_lkx,女,研究生及以上,21,001,2023-06-24_16h13.25.381,nalin_IRAP,2023.1.2,120.13094268969822,
"恭喜，你已达成80%正确率，可以继续实验

~请按空格键进入测试阶段~",伤心,"(0.0, -0.15)",f,,,,,,,,,0,0,0,0,0,18,18,18,,,,,,,,,,,,,,,,,,,,,,,,,,,,,,,,,,,,,,,,,,,,,,,,,,,,,,122.16833800001768,122.16833800001768,122.16833800001768,122.16833800001768,122.16833800001768,f,1,0.6164696000050753,122.79987300001085,,,,,,,,,,,,,,,,,,,,,,,230624_lkx,女,研究生及以上,21,001,2023-06-24_16h13.25.381,nalin_IRAP,2023.1.2,120.13094268969822,
"恭喜，你已达成80%正确率，可以继续实验

~请按空格键进入测试阶段~",快乐,"(0.0, 0.3)",f,,,,,,,,,0,0,0,0,0,19,19,1,,,,,,,,,,,,,,,,,,,,,,,,,,,,,,,,,,,,,,,,,,,,,,,,,,,,,,123.31064070004504,123.31064070004504,123.31064070004504,123.31064070004504,123.31064070004504,f,1,1.6934905999805778,125.02052830002503,,,,,,,,,,,,,,,,,,,,,,,230624_lkx,女,研究生及以上,21,001,2023-06-24_16h13.25.381,nalin_IRAP,2023.1.2,120.13094268969822,
"恭喜，你已达成80%正确率，可以继续实验

~请按空格键进入测试阶段~",快乐,"(0.0, -0.15)",j,,,,,,,,,0,0,0,0,0,20,20,13,,,,,,,,,,,,,,,,,,,,,,,,,,,,,,,,,,,,,,,,,,,,,,,,,,,,,,125.52413700002944,125.52413700002944,125.52413700002944,125.52413700002944,125.52413700002944,j,1,0.602248800045345,126.13706120004645,,,,,,,,,,,,,,,,,,,,,,,230624_lkx,女,研究生及以上,21,001,2023-06-24_16h13.25.381,nalin_IRAP,2023.1.2,120.13094268969822,
"恭喜，你已达成80%正确率，可以继续实验

~请按空格键进入测试阶段~",愁苦,"(0.0, 0.3)",j,,,,,,,,,0,0,0,0,0,21,21,11,,,,,,,,,,,,,,,,,,,,,,,,,,,,,,,,,,,,,,,,,,,,,,,,,,,,,,126.6415396000375,126.6415396000375,126.6415396000375,126.6415396000375,126.6415396000375,j,1,1.6419679999817163,128.2921452000155,,,,,,,,,,,,,,,,,,,,,,,230624_lkx,女,研究生及以上,21,001,2023-06-24_16h13.25.381,nalin_IRAP,2023.1.2,120.13094268969822,
"恭喜，你已达成80%正确率，可以继续实验

~请按空格键进入测试阶段~",忧郁,"(0.0, 0.3)",j,,,,,,,,,0,0,0,0,0,22,22,10,,,,,,,,,,,,,,,,,,,,,,,,,,,,,,,,,,,,,,,,,,,,,,,,,,,,,,128.80230189999565,128.80230189999565,128.80230189999565,128.80230189999565,128.80230189999565,j,1,0.4621815999853425,129.2777857000474,,,,,,,,,,,,,,,,,,,,,,,230624_lkx,女,研究生及以上,21,001,2023-06-24_16h13.25.381,nalin_IRAP,2023.1.2,120.13094268969822,
"恭喜，你已达成80%正确率，可以继续实验

~请按空格键进入测试阶段~",欣喜,"(0.0, -0.15)",j,,,,,,,,,0,0,0,0,0,23,23,15,,,,,,,,,,,,,,,,,,,,,,,,,,,,,,,,,,,,,,,,,,,,,,,,,,,,,,129.78530250000767,129.78530250000767,129.78530250000767,129.78530250000767,129.78530250000767,j,1,0.9207463999628089,130.7192992999917,,,,,,,,,,,,,,,,,,,,,,,230624_lkx,女,研究生及以上,21,001,2023-06-24_16h13.25.381,nalin_IRAP,2023.1.2,120.13094268969822,
"恭喜，你已达成80%正确率，可以继续实验

~请按空格键进入测试阶段~",忧郁,"(0.0, 0.3)",j,,,,,,,,,0,0,0,0,1,0,24,10,,,,,,,,,,,,,,,,,,,,,,,,,,,,,,,,,,,,,,,,,,,,,,,,,,,,,,131.22726090002107,131.22726090002107,131.22726090002107,131.22726090002107,131.22726090002107,j,1,2.332539600029122,133.5733127000276,134.0774034000351,,,,,,,,,,,,,,,,,,,,,,230624_lkx,女,研究生及以上,21,001,2023-06-24_16h13.25.381,nalin_IRAP,2023.1.2,120.13094268969822,
"恭喜，你已达成80%正确率，可以继续实验

~请按空格键进入测试阶段~",愉快,"(0.0, -0.15)",j,,,,,,,,,0,0,0,0,1,1,25,17,,,,,,,,,,,,,,,,,,,,,,,,,,,,,,,,,,,,,,,,,,,,,,,,,,,,,,134.0774034000351,134.0774034000351,134.0774034000351,134.0774034000351,134.0774034000351,j,1,3.188295800006017,137.28163490002044,137.78547180001624,,,,,,,,,,,,,,,,,,,,,,230624_lkx,女,研究生及以上,21,001,2023-06-24_16h13.25.381,nalin_IRAP,2023.1.2,120.13094268969822,
"恭喜，你已达成80%正确率，可以继续实验

~请按空格键进入测试阶段~",难过,"(0.0, -0.15)",f,,,,,,,,,0,0,0,0,1,2,26,20,,,,,,,,,,,,,,,,,,,,,,,,,,,,,,,,,,,,,,,,,,,,,,,,,,,,,,137.78547180001624,137.78547180001624,137.78547180001624,137.78547180001624,137.78547180001624,j,0,0.8449605000205338,138.64449259999674,,,,,,,,,,,,,,,,,,,,,,,230624_lkx,女,研究生及以上,21,001,2023-06-24_16h13.25.381,nalin_IRAP,2023.1.2,120.13094268969822,
"恭喜，你已达成80%正确率，可以继续实验

~请按空格键进入测试阶段~",喜悦,"(0.0, -0.15)",j,,,,,,,,,0,0,0,0,1,3,27,16,,,,,,,,,,,,,,,,,,,,,,,,,,,,,,,,,,,,,,,,,,,,,,,,,,,,,,139.1530533999903,139.1530533999903,139.1530533999903,139.1530533999903,139.1530533999903,j,1,0.6794545999728143,139.84552000003168,,,,,,,,,,,,,,,,,,,,,,,230624_lkx,女,研究生及以上,21,001,2023-06-24_16h13.25.381,nalin_IRAP,2023.1.2,120.13094268969822,
"恭喜，你已达成80%正确率，可以继续实验

~请按空格键进入测试阶段~",难过,"(0.0, 0.3)",j,,,,,,,,,0,0,0,0,1,4,28,8,,,,,,,,,,,,,,,,,,,,,,,,,,,,,,,,,,,,,,,,,,,,,,,,,,,,,,140.35192919999827,140.35192919999827,140.35192919999827,140.35192919999827,140.35192919999827,j,1,0.7267591999843717,141.09117610001704,,,,,,,,,,,,,,,,,,,,,,,230624_lkx,女,研究生及以上,21,001,2023-06-24_16h13.25.381,nalin_IRAP,2023.1.2,120.13094268969822,
"恭喜，你已达成80%正确率，可以继续实验

~请按空格键进入测试阶段~",欣喜,"(0.0, 0.3)",f,,,,,,,,,0,0,0,0,1,5,29,3,,,,,,,,,,,,,,,,,,,,,,,,,,,,,,,,,,,,,,,,,,,,,,,,,,,,,,141.60174680000637,141.60174680000637,141.60174680000637,141.60174680000637,141.60174680000637,f,1,0.5547642999445088,142.1654723000247,,,,,,,,,,,,,,,,,,,,,,,230624_lkx,女,研究生及以上,21,001,2023-06-24_16h13.25.381,nalin_IRAP,2023.1.2,120.13094268969822,
"恭喜，你已达成80%正确率，可以继续实验

~请按空格键进入测试阶段~",愉悦,"(0.0, 0.3)",f,,,,,,,,,0,0,0,0,1,6,30,2,,,,,,,,,,,,,,,,,,,,,,,,,,,,,,,,,,,,,,,,,,,,,,,,,,,,,,142.67746199999237,142.67746199999237,142.67746199999237,142.67746199999237,142.67746199999237,f,1,0.6597301999572664,143.34569350001402,143.8522196999984,,,,,,,,,,,,,,,,,,,,,,230624_lkx,女,研究生及以上,21,001,2023-06-24_16h13.25.381,nalin_IRAP,2023.1.2,120.13094268969822,
"恭喜，你已达成80%正确率，可以继续实验

~请按空格键进入测试阶段~",愁苦,"(0.0, 0.3)",j,,,,,,,,,0,0,0,0,1,7,31,11,,,,,,,,,,,,,,,,,,,,,,,,,,,,,,,,,,,,,,,,,,,,,,,,,,,,,,143.8522196999984,143.8522196999984,143.8522196999984,143.8522196999984,143.8522196999984,j,1,0.4757802999811247,144.3426222000271,,,,,,,,,,,,,,,,,,,,,,,230624_lkx,女,研究生及以上,21,001,2023-06-24_16h13.25.381,nalin_IRAP,2023.1.2,120.13094268969822,
"恭喜，你已达成80%正确率，可以继续实验

~请按空格键进入测试阶段~",快乐,"(0.0, 0.3)",f,,,,,,,,,0,0,0,0,1,8,32,1,,,,,,,,,,,,,,,,,,,,,,,,,,,,,,,,,,,,,,,,,,,,,,,,,,,,,,144.8520734999911,144.8520734999911,144.8520734999911,144.8520734999911,144.8520734999911,f,1,0.5012260999646969,145.36842539999634,,,,,,,,,,,,,,,,,,,,,,,230624_lkx,女,研究生及以上,21,001,2023-06-24_16h13.25.381,nalin_IRAP,2023.1.2,120.13094268969822,
"恭喜，你已达成80%正确率，可以继续实验

~请按空格键进入测试阶段~",忧郁,"(0.0, -0.15)",f,,,,,,,,,0,0,0,0,1,9,33,22,,,,,,,,,,,,,,,,,,,,,,,,,,,,,,,,,,,,,,,,,,,,,,,,,,,,,,145.87733340001432,145.87733340001432,145.87733340001432,145.87733340001432,145.87733340001432,j,0,0.7437758999876678,146.63524309999775,,,,,,,,,,,,,,,,,,,,,,,230624_lkx,女,研究生及以上,21,001,2023-06-24_16h13.25.381,nalin_IRAP,2023.1.2,120.13094268969822,
"恭喜，你已达成80%正确率，可以继续实验

~请按空格键进入测试阶段~",愁苦,"(0.0, -0.15)",f,,,,,,,,,0,0,0,0,1,10,34,23,,,,,,,,,,,,,,,,,,,,,,,,,,,,,,,,,,,,,,,,,,,,,,,,,,,,,,147.14410209999187,147.14410209999187,147.14410209999187,147.14410209999187,147.14410209999187,f,1,0.5354646999621764,147.6941997000249,,,,,,,,,,,,,,,,,,,,,,,230624_lkx,女,研究生及以上,21,001,2023-06-24_16h13.25.381,nalin_IRAP,2023.1.2,120.13094268969822,
"恭喜，你已达成80%正确率，可以继续实验

~请按空格键进入测试阶段~",伤心,"(0.0, 0.3)",j,,,,,,,,,0,0,0,0,1,11,35,6,,,,,,,,,,,,,,,,,,,,,,,,,,,,,,,,,,,,,,,,,,,,,,,,,,,,,,148.20242600003257,148.20242600003257,148.20242600003257,148.20242600003257,148.20242600003257,j,1,0.9898451999761164,149.2054325999925,149.71135440003127,,,,,,,,,,,,,,,,,,,,,,230624_lkx,女,研究生及以上,21,001,2023-06-24_16h13.25.381,nalin_IRAP,2023.1.2,120.13094268969822,
"恭喜，你已达成80%正确率，可以继续实验

~请按空格键进入测试阶段~",失落,"(0.0, -0.15)",f,,,,,,,,,0,0,0,0,1,12,36,19,,,,,,,,,,,,,,,,,,,,,,,,,,,,,,,,,,,,,,,,,,,,,,,,,,,,,,149.71135440003127,149.71135440003127,149.71135440003127,149.71135440003127,149.71135440003127,f,1,0.6889941999688745,150.41209689999232,150.9198621000396,,,,,,,,,,,,,,,,,,,,,,230624_lkx,女,研究生及以上,21,001,2023-06-24_16h13.25.381,nalin_IRAP,2023.1.2,120.13094268969822,
"恭喜，你已达成80%正确率，可以继续实验

~请按空格键进入测试阶段~",悲伤,"(0.0, 0.3)",j,,,,,,,,,0,0,0,0,1,13,37,9,,,,,,,,,,,,,,,,,,,,,,,,,,,,,,,,,,,,,,,,,,,,,,,,,,,,,,150.9198621000396,150.9198621000396,150.9198621000396,150.9198621000396,150.9198621000396,j,1,0.7077951000537723,151.63676110003144,,,,,,,,,,,,,,,,,,,,,,,230624_lkx,女,研究生及以上,21,001,2023-06-24_16h13.25.381,nalin_IRAP,2023.1.2,120.13094268969822,
"恭喜，你已达成80%正确率，可以继续实验

~请按空格键进入测试阶段~",失落,"(0.0, 0.3)",j,,,,,,,,,0,0,0,0,1,14,38,7,,,,,,,,,,,,,,,,,,,,,,,,,,,,,,,,,,,,,,,,,,,,,,,,,,,,,,152.14351640001405,152.14351640001405,152.14351640001405,152.14351640001405,152.14351640001405,f,0,0.6520700000110082,152.80417980003403,153.31078190001426,,,,,,,,,,,,,,,,,,,,,,230624_lkx,女,研究生及以上,21,001,2023-06-24_16h13.25.381,nalin_IRAP,2023.1.2,120.13094268969822,
"恭喜，你已达成80%正确率，可以继续实验

~请按空格键进入测试阶段~",欣喜,"(0.0, -0.15)",j,,,,,,,,,0,0,0,0,1,15,39,15,,,,,,,,,,,,,,,,,,,,,,,,,,,,,,,,,,,,,,,,,,,,,,,,,,,,,,153.31078190001426,153.31078190001426,153.31078190001426,153.31078190001426,153.31078190001426,j,1,0.8046167999855243,154.12449270003708,,,,,,,,,,,,,,,,,,,,,,,230624_lkx,女,研究生及以上,21,001,2023-06-24_16h13.25.381,nalin_IRAP,2023.1.2,120.13094268969822,
"恭喜，你已达成80%正确率，可以继续实验

~请按空格键进入测试阶段~",高兴,"(0.0, 0.3)",f,,,,,,,,,0,0,0,0,1,16,40,0,,,,,,,,,,,,,,,,,,,,,,,,,,,,,,,,,,,,,,,,,,,,,,,,,,,,,,154.6350352000445,154.6350352000445,154.6350352000445,154.6350352000445,154.6350352000445,f,1,0.5862452000146732,155.23512329999357,,,,,,,,,,,,,,,,,,,,,,,230624_lkx,女,研究生及以上,21,001,2023-06-24_16h13.25.381,nalin_IRAP,2023.1.2,120.13094268969822,
"恭喜，你已达成80%正确率，可以继续实验

~请按空格键进入测试阶段~",高兴,"(0.0, -0.15)",j,,,,,,,,,0,0,0,0,1,17,41,12,,,,,,,,,,,,,,,,,,,,,,,,,,,,,,,,,,,,,,,,,,,,,,,,,,,,,,155.74065330001758,155.74065330001758,155.74065330001758,155.74065330001758,155.74065330001758,j,1,1.7228581000235863,157.4771237000241,,,,,,,,,,,,,,,,,,,,,,,230624_lkx,女,研究生及以上,21,001,2023-06-24_16h13.25.381,nalin_IRAP,2023.1.2,120.13094268969822,
"恭喜，你已达成80%正确率，可以继续实验

~请按空格键进入测试阶段~",快乐,"(0.0, -0.15)",j,,,,,,,,,0,0,0,0,1,18,42,13,,,,,,,,,,,,,,,,,,,,,,,,,,,,,,,,,,,,,,,,,,,,,,,,,,,,,,157.98514790000627,157.98514790000627,157.98514790000627,157.98514790000627,157.98514790000627,j,1,0.529370799951721,158.52517340000486,,,,,,,,,,,,,,,,,,,,,,,230624_lkx,女,研究生及以上,21,001,2023-06-24_16h13.25.381,nalin_IRAP,2023.1.2,120.13094268969822,
"恭喜，你已达成80%正确率，可以继续实验

~请按空格键进入测试阶段~",愉快,"(0.0, 0.3)",f,,,,,,,,,0,0,0,0,1,19,43,5,,,,,,,,,,,,,,,,,,,,,,,,,,,,,,,,,,,,,,,,,,,,,,,,,,,,,,159.03582290001214,159.03582290001214,159.03582290001214,159.03582290001214,159.03582290001214,f,1,0.7799028999870643,159.8251872000401,,,,,,,,,,,,,,,,,,,,,,,230624_lkx,女,研究生及以上,21,001,2023-06-24_16h13.25.381,nalin_IRAP,2023.1.2,120.13094268969822,
"恭喜，你已达成80%正确率，可以继续实验

~请按空格键进入测试阶段~",伤心,"(0.0, -0.15)",f,,,,,,,,,0,0,0,0,1,20,44,18,,,,,,,,,,,,,,,,,,,,,,,,,,,,,,,,,,,,,,,,,,,,,,,,,,,,,,160.33479930000613,160.33479930000613,160.33479930000613,160.33479930000613,160.33479930000613,f,1,0.8559280999470502,161.20663269999204,161.71144700003788,,,,,,,,,,,,,,,,,,,,,,230624_lkx,女,研究生及以上,21,001,2023-06-24_16h13.25.381,nalin_IRAP,2023.1.2,120.13094268969822,
"恭喜，你已达成80%正确率，可以继续实验

~请按空格键进入测试阶段~",喜悦,"(0.0, 0.3)",f,,,,,,,,,0,0,0,0,1,21,45,4,,,,,,,,,,,,,,,,,,,,,,,,,,,,,,,,,,,,,,,,,,,,,,,,,,,,,,161.71144700003788,161.71144700003788,161.71144700003788,161.71144700003788,161.71144700003788,f,1,0.5810151000041515,162.3071529000299,,,,,,,,,,,,,,,,,,,,,,,230624_lkx,女,研究生及以上,21,001,2023-06-24_16h13.25.381,nalin_IRAP,2023.1.2,120.13094268969822,
"恭喜，你已达成80%正确率，可以继续实验

~请按空格键进入测试阶段~",愉悦,"(0.0, -0.15)",j,,,,,,,,,0,0,0,0,1,22,46,14,,,,,,,,,,,,,,,,,,,,,,,,,,,,,,,,,,,,,,,,,,,,,,,,,,,,,,162.81989070004784,162.81989070004784,162.81989070004784,162.81989070004784,162.81989070004784,j,1,0.7291221999912523,163.5624223999912,164.07101820001844,,,,,,,,,,,,,,,,,,,,,,230624_lkx,女,研究生及以上,21,001,2023-06-24_16h13.25.381,nalin_IRAP,2023.1.2,120.13094268969822,
"恭喜，你已达成80%正确率，可以继续实验

~请按空格键进入测试阶段~",悲伤,"(0.0, -0.15)",f,,,,,,,,,0,0,0,0,1,23,47,21,,,,,,,,,,,,,,,,,,,,,,,,,,,,,,,,,,,,,,,,,,,,,,,,,,,,,,164.07101820001844,164.07101820001844,164.07101820001844,164.07101820001844,164.07101820001844,f,1,0.7418298000120558,164.82214410003508,165.32774510001764,,,,,,,,,,,,,,,,,,,,,,230624_lkx,女,研究生及以上,21,001,2023-06-24_16h13.25.381,nalin_IRAP,2023.1.2,120.13094268969822,
"恭喜，你已达成80%正确率，可以继续实验

~请按空格键进入测试阶段~",愉悦,"(0.0, -0.15)",j,,,,,,,,,0,0,0,0,2,0,48,14,,,,,,,,,,,,,,,,,,,,,,,,,,,,,,,,,,,,,,,,,,,,,,,,,,,,,,165.32774510001764,165.32774510001764,165.32774510001764,165.32774510001764,165.32774510001764,j,1,1.434719800017774,166.77630440000212,,,,,,,,,,,,,,,,,,,,,,,230624_lkx,女,研究生及以上,21,001,2023-06-24_16h13.25.381,nalin_IRAP,2023.1.2,120.13094268969822,
"恭喜，你已达成80%正确率，可以继续实验

~请按空格键进入测试阶段~",喜悦,"(0.0, -0.15)",j,,,,,,,,,0,0,0,0,2,1,49,16,,,,,,,,,,,,,,,,,,,,,,,,,,,,,,,,,,,,,,,,,,,,,,,,,,,,,,167.28531000000658,167.28531000000658,167.28531000000658,167.28531000000658,167.28531000000658,j,1,0.7539589999942109,168.05390830000397,168.56105310004205,,,,,,,,,,,,,,,,,,,,,,230624_lkx,女,研究生及以上,21,001,2023-06-24_16h13.25.381,nalin_IRAP,2023.1.2,120.13094268969822,
"恭喜，你已达成80%正确率，可以继续实验

~请按空格键进入测试阶段~",高兴,"(0.0, -0.15)",j,,,,,,,,,0,0,0,0,2,2,50,12,,,,,,,,,,,,,,,,,,,,,,,,,,,,,,,,,,,,,,,,,,,,,,,,,,,,,,168.56105310004205,168.56105310004205,168.56105310004205,168.56105310004205,168.56105310004205,j,1,0.6918362999567762,169.26493520004442,169.76928970002336,,,,,,,,,,,,,,,,,,,,,,230624_lkx,女,研究生及以上,21,001,2023-06-24_16h13.25.381,nalin_IRAP,2023.1.2,120.13094268969822,
"恭喜，你已达成80%正确率，可以继续实验

~请按空格键进入测试阶段~",伤心,"(0.0, -0.15)",f,,,,,,,,,0,0,0,0,2,3,51,18,,,,,,,,,,,,,,,,,,,,,,,,,,,,,,,,,,,,,,,,,,,,,,,,,,,,,,169.76928970002336,169.76928970002336,169.76928970002336,169.76928970002336,169.76928970002336,f,1,1.2917152000009082,171.06987840001239,,,,,,,,,,,,,,,,,,,,,,,230624_lkx,女,研究生及以上,21,001,2023-06-24_16h13.25.381,nalin_IRAP,2023.1.2,120.13094268969822,
"恭喜，你已达成80%正确率，可以继续实验

~请按空格键进入测试阶段~",快乐,"(0.0, 0.3)",f,,,,,,,,,0,0,0,0,2,4,52,1,,,,,,,,,,,,,,,,,,,,,,,,,,,,,,,,,,,,,,,,,,,,,,,,,,,,,,171.57759260002058,171.57759260002058,171.57759260002058,171.57759260002058,171.57759260002058,f,1,0.8695641999947838,172.4563979000086,172.96077980002156,,,,,,,,,,,,,,,,,,,,,,230624_lkx,女,研究生及以上,21,001,2023-06-24_16h13.25.381,nalin_IRAP,2023.1.2,120.13094268969822,
"恭喜，你已达成80%正确率，可以继续实验

~请按空格键进入测试阶段~",愁苦,"(0.0, 0.3)",j,,,,,,,,,0,0,0,0,2,5,53,11,,,,,,,,,,,,,,,,,,,,,,,,,,,,,,,,,,,,,,,,,,,,,,,,,,,,,,172.96077980002156,172.96077980002156,172.96077980002156,172.96077980002156,172.96077980002156,j,1,2.695403299992904,175.6647026000428,176.16868729999987,,,,,,,,,,,,,,,,,,,,,,230624_lkx,女,研究生及以上,21,001,2023-06-24_16h13.25.381,nalin_IRAP,2023.1.2,120.13094268969822,
"恭喜，你已达成80%正确率，可以继续实验

~请按空格键进入测试阶段~",欣喜,"(0.0, 0.3)",f,,,,,,,,,0,0,0,0,2,6,54,3,,,,,,,,,,,,,,,,,,,,,,,,,,,,,,,,,,,,,,,,,,,,,,,,,,,,,,176.16868729999987,176.16868729999987,176.16868729999987,176.16868729999987,176.16868729999987,f,1,0.7391572000342421,176.92319800000405,177.42480929999147,,,,,,,,,,,,,,,,,,,,,,230624_lkx,女,研究生及以上,21,001,2023-06-24_16h13.25.381,nalin_IRAP,2023.1.2,120.13094268969822,
"恭喜，你已达成80%正确率，可以继续实验

~请按空格键进入测试阶段~",欣喜,"(0.0, -0.15)",j,,,,,,,,,0,0,0,0,2,7,55,15,,,,,,,,,,,,,,,,,,,,,,,,,,,,,,,,,,,,,,,,,,,,,,,,,,,,,,177.42480929999147,177.42480929999147,177.42480929999147,177.42480929999147,177.42480929999147,j,1,1.3165859999717213,178.74932639999315,,,,,,,,,,,,,,,,,,,,,,,230624_lkx,女,研究生及以上,21,001,2023-06-24_16h13.25.381,nalin_IRAP,2023.1.2,120.13094268969822,
"恭喜，你已达成80%正确率，可以继续实验

~请按空格键进入测试阶段~",难过,"(0.0, -0.15)",f,,,,,,,,,0,0,0,0,2,8,56,20,,,,,,,,,,,,,,,,,,,,,,,,,,,,,,,,,,,,,,,,,,,,,,,,,,,,,,179.259114400018,179.259114400018,179.259114400018,179.259114400018,179.259114400018,f,1,0.866505199985113,180.13320720003685,,,,,,,,,,,,,,,,,,,,,,,230624_lkx,女,研究生及以上,21,001,2023-06-24_16h13.25.381,nalin_IRAP,2023.1.2,120.13094268969822,
"恭喜，你已达成80%正确率，可以继续实验

~请按空格键进入测试阶段~",喜悦,"(0.0, 0.3)",f,,,,,,,,,0,0,0,0,2,9,57,4,,,,,,,,,,,,,,,,,,,,,,,,,,,,,,,,,,,,,,,,,,,,,,,,,,,,,,180.64300290000392,180.64300290000392,180.64300290000392,180.64300290000392,180.64300290000392,f,1,0.8539337000111118,181.50315330002923,182.0104161000345,,,,,,,,,,,,,,,,,,,,,,230624_lkx,女,研究生及以上,21,001,2023-06-24_16h13.25.381,nalin_IRAP,2023.1.2,120.13094268969822,
"恭喜，你已达成80%正确率，可以继续实验

~请按空格键进入测试阶段~",忧郁,"(0.0, 0.3)",j,,,,,,,,,0,0,0,0,2,10,58,10,,,,,,,,,,,,,,,,,,,,,,,,,,,,,,,,,,,,,,,,,,,,,,,,,,,,,,182.0104161000345,182.0104161000345,182.0104161000345,182.0104161000345,182.0104161000345,j,1,0.672574199968949,182.69267330004368,,,,,,,,,,,,,,,,,,,,,,,230624_lkx,女,研究生及以上,21,001,2023-06-24_16h13.25.381,nalin_IRAP,2023.1.2,120.13094268969822,
"恭喜，你已达成80%正确率，可以继续实验

~请按空格键进入测试阶段~",高兴,"(0.0, 0.3)",f,,,,,,,,,0,0,0,0,2,11,59,0,,,,,,,,,,,,,,,,,,,,,,,,,,,,,,,,,,,,,,,,,,,,,,,,,,,,,,183.2019302000408,183.2019302000408,183.2019302000408,183.2019302000408,183.2019302000408,f,1,0.6948611999978311,183.91108150000218,,,,,,,,,,,,,,,,,,,,,,,230624_lkx,女,研究生及以上,21,001,2023-06-24_16h13.25.381,nalin_IRAP,2023.1.2,120.13094268969822,
"恭喜，你已达成80%正确率，可以继续实验

~请按空格键进入测试阶段~",愉快,"(0.0, 0.3)",f,,,,,,,,,0,0,0,0,2,12,60,5,,,,,,,,,,,,,,,,,,,,,,,,,,,,,,,,,,,,,,,,,,,,,,,,,,,,,,184.41827590001049,184.41827590001049,184.41827590001049,184.41827590001049,184.41827590001049,f,1,0.5726230000145733,185.00565300002927,185.5105206000153,,,,,,,,,,,,,,,,,,,,,,230624_lkx,女,研究生及以上,21,001,2023-06-24_16h13.25.381,nalin_IRAP,2023.1.2,120.13094268969822,
"恭喜，你已达成80%正确率，可以继续实验

~请按空格键进入测试阶段~",忧郁,"(0.0, -0.15)",f,,,,,,,,,0,0,0,0,2,13,61,22,,,,,,,,,,,,,,,,,,,,,,,,,,,,,,,,,,,,,,,,,,,,,,,,,,,,,,185.5105206000153,185.5105206000153,185.5105206000153,185.5105206000153,185.5105206000153,f,1,0.7528097999747843,186.27531470003305,,,,,,,,,,,,,,,,,,,,,,,230624_lkx,女,研究生及以上,21,001,2023-06-24_16h13.25.381,nalin_IRAP,2023.1.2,120.13094268969822,
"恭喜，你已达成80%正确率，可以继续实验

~请按空格键进入测试阶段~",难过,"(0.0, 0.3)",j,,,,,,,,,0,0,0,0,2,14,62,8,,,,,,,,,,,,,,,,,,,,,,,,,,,,,,,,,,,,,,,,,,,,,,,,,,,,,,186.78453639999498,186.78453639999498,186.78453639999498,186.78453639999498,186.78453639999498,j,1,0.5599377999897115,187.35549560002983,187.86154610000085,,,,,,,,,,,,,,,,,,,,,,230624_lkx,女,研究生及以上,21,001,2023-06-24_16h13.25.381,nalin_IRAP,2023.1.2,120.13094268969822,
"恭喜，你已达成80%正确率，可以继续实验

~请按空格键进入测试阶段~",悲伤,"(0.0, -0.15)",f,,,,,,,,,0,0,0,0,2,15,63,21,,,,,,,,,,,,,,,,,,,,,,,,,,,,,,,,,,,,,,,,,,,,,,,,,,,,,,187.86154610000085,187.86154610000085,187.86154610000085,187.86154610000085,187.86154610000085,f,1,0.8660855999914929,188.74204800004372,,,,,,,,,,,,,,,,,,,,,,,230624_lkx,女,研究生及以上,21,001,2023-06-24_16h13.25.381,nalin_IRAP,2023.1.2,120.13094268969822,
"恭喜，你已达成80%正确率，可以继续实验

~请按空格键进入测试阶段~",伤心,"(0.0, 0.3)",j,,,,,,,,,0,0,0,0,2,16,64,6,,,,,,,,,,,,,,,,,,,,,,,,,,,,,,,,,,,,,,,,,,,,,,,,,,,,,,189.2514939000248,189.2514939000248,189.2514939000248,189.2514939000248,189.2514939000248,j,1,0.6015601000399329,189.86454340000637,190.36873560003005,,,,,,,,,,,,,,,,,,,,,,230624_lkx,女,研究生及以上,21,001,2023-06-24_16h13.25.381,nalin_IRAP,2023.1.2,120.13094268969822,
"恭喜，你已达成80%正确率，可以继续实验

~请按空格键进入测试阶段~",愉悦,"(0.0, 0.3)",f,,,,,,,,,0,0,0,0,2,17,65,2,,,,,,,,,,,,,,,,,,,,,,,,,,,,,,,,,,,,,,,,,,,,,,,,,,,,,,190.36873560003005,190.36873560003005,190.36873560003005,190.36873560003005,190.36873560003005,f,1,0.624826600018423,191.00111040001502,,,,,,,,,,,,,,,,,,,,,,,230624_lkx,女,研究生及以上,21,001,2023-06-24_16h13.25.381,nalin_IRAP,2023.1.2,120.13094268969822,
"恭喜，你已达成80%正确率，可以继续实验

~请按空格键进入测试阶段~",悲伤,"(0.0, 0.3)",j,,,,,,,,,0,0,0,0,2,18,66,9,,,,,,,,,,,,,,,,,,,,,,,,,,,,,,,,,,,,,,,,,,,,,,,,,,,,,,191.5091100000427,191.5091100000427,191.5091100000427,191.5091100000427,191.5091100000427,j,1,0.5302218000288121,192.05498980003176,192.5609725000104,,,,,,,,,,,,,,,,,,,,,,230624_lkx,女,研究生及以上,21,001,2023-06-24_16h13.25.381,nalin_IRAP,2023.1.2,120.13094268969822,
"恭喜，你已达成80%正确率，可以继续实验

~请按空格键进入测试阶段~",失落,"(0.0, -0.15)",f,,,,,,,,,0,0,0,0,2,19,67,19,,,,,,,,,,,,,,,,,,,,,,,,,,,,,,,,,,,,,,,,,,,,,,,,,,,,,,192.5609725000104,192.5609725000104,192.5609725000104,192.5609725000104,192.5609725000104,f,1,1.0335680999560282,193.60875240003224,,,,,,,,,,,,,,,,,,,,,,,230624_lkx,女,研究生及以上,21,001,2023-06-24_16h13.25.381,nalin_IRAP,2023.1.2,120.13094268969822,
"恭喜，你已达成80%正确率，可以继续实验

~请按空格键进入测试阶段~",愁苦,"(0.0, -0.15)",f,,,,,,,,,0,0,0,0,2,20,68,23,,,,,,,,,,,,,,,,,,,,,,,,,,,,,,,,,,,,,,,,,,,,,,,,,,,,,,194.11780290002935,194.11780290002935,194.11780290002935,194.11780290002935,194.11780290002935,f,1,0.6437406000331976,194.7727904000203,195.27683240000624,,,,,,,,,,,,,,,,,,,,,,230624_lkx,女,研究生及以上,21,001,2023-06-24_16h13.25.381,nalin_IRAP,2023.1.2,120.13094268969822,
"恭喜，你已达成80%正确率，可以继续实验

~请按空格键进入测试阶段~",愉快,"(0.0, -0.15)",j,,,,,,,,,0,0,0,0,2,21,69,17,,,,,,,,,,,,,,,,,,,,,,,,,,,,,,,,,,,,,,,,,,,,,,,,,,,,,,195.27683240000624,195.27683240000624,195.27683240000624,195.27683240000624,195.27683240000624,j,1,0.6825134000391699,195.96893770003226,,,,,,,,,,,,,,,,,,,,,,,230624_lkx,女,研究生及以上,21,001,2023-06-24_16h13.25.381,nalin_IRAP,2023.1.2,120.13094268969822,
"恭喜，你已达成80%正确率，可以继续实验

~请按空格键进入测试阶段~",失落,"(0.0, 0.3)",j,,,,,,,,,0,0,0,0,2,22,70,7,,,,,,,,,,,,,,,,,,,,,,,,,,,,,,,,,,,,,,,,,,,,,,,,,,,,,,196.4765607000445,196.4765607000445,196.4765607000445,196.4765607000445,196.4765607000445,j,1,0.7625755000044592,197.2548395000049,197.76202339999145,,,,,,,,,,,,,,,,,,,,,,230624_lkx,女,研究生及以上,21,001,2023-06-24_16h13.25.381,nalin_IRAP,2023.1.2,120.13094268969822,
"恭喜，你已达成80%正确率，可以继续实验

~请按空格键进入测试阶段~",快乐,"(0.0, -0.15)",j,,,,,,,,,0,0,0,0,2,23,71,13,,,,,,,,,,,,,,,,,,,,,,,,,,,,,,,,,,,,,,,,,,,,,,,,,,,,,,197.76202339999145,197.76202339999145,197.76202339999145,197.76202339999145,197.76202339999145,j,1,0.7593568000011146,198.53169390000403,199.0357084000134,,,,,,,,,,,,,,,,,,,,,,230624_lkx,女,研究生及以上,21,001,2023-06-24_16h13.25.381,nalin_IRAP,2023.1.2,120.13094268969822,
"恭喜，你已达成80%正确率，可以继续实验

~请按空格键进入测试阶段~",愁苦,"(0.0, 0.3)",j,,,,,,,,,0,0,0,0,3,0,72,11,,,,,,,,,,,,,,,,,,,,,,,,,,,,,,,,,,,,,,,,,,,,,,,,,,,,,,199.0357084000134,199.0357084000134,199.0357084000134,199.0357084000134,199.0357084000134,f,0,0.569041799986735,199.6141630000202,200.11966490000486,,,,,,,,,,,,,,,,,,,,,,230624_lkx,女,研究生及以上,21,001,2023-06-24_16h13.25.381,nalin_IRAP,2023.1.2,120.13094268969822,
"恭喜，你已达成80%正确率，可以继续实验

~请按空格键进入测试阶段~",愉快,"(0.0, -0.15)",j,,,,,,,,,0,0,0,0,3,1,73,17,,,,,,,,,,,,,,,,,,,,,,,,,,,,,,,,,,,,,,,,,,,,,,,,,,,,,,200.11966490000486,200.11966490000486,200.11966490000486,200.11966490000486,200.11966490000486,j,1,1.0301116000046022,201.15975540003274,,,,,,,,,,,,,,,,,,,,,,,230624_lkx,女,研究生及以上,21,001,2023-06-24_16h13.25.381,nalin_IRAP,2023.1.2,120.13094268969822,
"恭喜，你已达成80%正确率，可以继续实验

~请按空格键进入测试阶段~",愉快,"(0.0, 0.3)",f,,,,,,,,,0,0,0,0,3,2,74,5,,,,,,,,,,,,,,,,,,,,,,,,,,,,,,,,,,,,,,,,,,,,,,,,,,,,,,201.6664441000321,201.6664441000321,201.6664441000321,201.6664441000321,201.6664441000321,f,1,0.6525413999916054,202.33322080003563,,,,,,,,,,,,,,,,,,,,,,,230624_lkx,女,研究生及以上,21,001,2023-06-24_16h13.25.381,nalin_IRAP,2023.1.2,120.13094268969822,
"恭喜，你已达成80%正确率，可以继续实验

~请按空格键进入测试阶段~",愉悦,"(0.0, 0.3)",f,,,,,,,,,0,0,0,0,3,3,75,2,,,,,,,,,,,,,,,,,,,,,,,,,,,,,,,,,,,,,,,,,,,,,,,,,,,,,,202.84380420000525,202.84380420000525,202.84380420000525,202.84380420000525,202.84380420000525,f,1,0.5340951000107452,203.38901109999279,203.89391790004447,,,,,,,,,,,,,,,,,,,,,,230624_lkx,女,研究生及以上,21,001,2023-06-24_16h13.25.381,nalin_IRAP,2023.1.2,120.13094268969822,
"恭喜，你已达成80%正确率，可以继续实验

~请按空格键进入测试阶段~",愁苦,"(0.0, -0.15)",f,,,,,,,,,0,0,0,0,3,4,76,23,,,,,,,,,,,,,,,,,,,,,,,,,,,,,,,,,,,,,,,,,,,,,,,,,,,,,,203.89391790004447,203.89391790004447,203.89391790004447,203.89391790004447,203.89391790004447,f,1,1.0533297999645583,204.95731700002216,,,,,,,,,,,,,,,,,,,,,,,230624_lkx,女,研究生及以上,21,001,2023-06-24_16h13.25.381,nalin_IRAP,2023.1.2,120.13094268969822,
"恭喜，你已达成80%正确率，可以继续实验

~请按空格键进入测试阶段~",欣喜,"(0.0, 0.3)",f,,,,,,,,,0,0,0,0,3,5,77,3,,,,,,,,,,,,,,,,,,,,,,,,,,,,,,,,,,,,,,,,,,,,,,,,,,,,,,205.46868910000194,205.46868910000194,205.46868910000194,205.46868910000194,205.46868910000194,f,1,0.5260158000164665,206.0031350000063,,,,,,,,,,,,,,,,,,,,,,,230624_lkx,女,研究生及以上,21,001,2023-06-24_16h13.25.381,nalin_IRAP,2023.1.2,120.13094268969822,
"恭喜，你已达成80%正确率，可以继续实验

~请按空格键进入测试阶段~",忧郁,"(0.0, 0.3)",j,,,,,,,,,0,0,0,0,3,6,78,10,,,,,,,,,,,,,,,,,,,,,,,,,,,,,,,,,,,,,,,,,,,,,,,,,,,,,,206.51122889999533,206.51122889999533,206.51122889999533,206.51122889999533,206.51122889999533,j,1,1.0387570000020787,207.55850510002347,,,,,,,,,,,,,,,,,,,,,,,230624_lkx,女,研究生及以上,21,001,2023-06-24_16h13.25.381,nalin_IRAP,2023.1.2,120.13094268969822,
"恭喜，你已达成80%正确率，可以继续实验

~请按空格键进入测试阶段~",伤心,"(0.0, -0.15)",f,,,,,,,,,0,0,0,0,3,7,79,18,,,,,,,,,,,,,,,,,,,,,,,,,,,,,,,,,,,,,,,,,,,,,,,,,,,,,,208.06912739999825,208.06912739999825,208.06912739999825,208.06912739999825,208.06912739999825,f,1,0.8216737000038847,208.89952070004074,,,,,,,,,,,,,,,,,,,,,,,230624_lkx,女,研究生及以上,21,001,2023-06-24_16h13.25.381,nalin_IRAP,2023.1.2,120.13094268969822,
"恭喜，你已达成80%正确率，可以继续实验

~请按空格键进入测试阶段~",欣喜,"(0.0, -0.15)",j,,,,,,,,,0,0,0,0,3,8,80,15,,,,,,,,,,,,,,,,,,,,,,,,,,,,,,,,,,,,,,,,,,,,,,,,,,,,,,209.40862310002558,209.40862310002558,209.40862310002558,209.40862310002558,209.40862310002558,j,1,0.6516666000243276,210.06893250002759,,,,,,,,,,,,,,,,,,,,,,,230624_lkx,女,研究生及以上,21,001,2023-06-24_16h13.25.381,nalin_IRAP,2023.1.2,120.13094268969822,
"恭喜，你已达成80%正确率，可以继续实验

~请按空格键进入测试阶段~",失落,"(0.0, 0.3)",j,,,,,,,,,0,0,0,0,3,9,81,7,,,,,,,,,,,,,,,,,,,,,,,,,,,,,,,,,,,,,,,,,,,,,,,,,,,,,,210.57763230003184,210.57763230003184,210.57763230003184,210.57763230003184,210.57763230003184,j,1,0.7875956000061706,211.37742720003007,,,,,,,,,,,,,,,,,,,,,,,230624_lkx,女,研究生及以上,21,001,2023-06-24_16h13.25.381,nalin_IRAP,2023.1.2,120.13094268969822,
"恭喜，你已达成80%正确率，可以继续实验

~请按空格键进入测试阶段~",难过,"(0.0, 0.3)",j,,,,,,,,,0,0,0,0,3,10,82,8,,,,,,,,,,,,,,,,,,,,,,,,,,,,,,,,,,,,,,,,,,,,,,,,,,,,,,211.88507750001736,211.88507750001736,211.88507750001736,211.88507750001736,211.88507750001736,j,1,0.6296469999942929,212.5296212999965,213.03688630001852,,,,,,,,,,,,,,,,,,,,,,230624_lkx,女,研究生及以上,21,001,2023-06-24_16h13.25.381,nalin_IRAP,2023.1.2,120.13094268969822,
"恭喜，你已达成80%正确率，可以继续实验

~请按空格键进入测试阶段~",愉悦,"(0.0, -0.15)",j,,,,,,,,,0,0,0,0,3,11,83,14,,,,,,,,,,,,,,,,,,,,,,,,,,,,,,,,,,,,,,,,,,,,,,,,,,,,,,213.03688630001852,213.03688630001852,213.03688630001852,213.03688630001852,213.03688630001852,j,1,0.9343000999651849,213.98113960004412,214.48520130000543,,,,,,,,,,,,,,,,,,,,,,230624_lkx,女,研究生及以上,21,001,2023-06-24_16h13.25.381,nalin_IRAP,2023.1.2,120.13094268969822,
"恭喜，你已达成80%正确率，可以继续实验

~请按空格键进入测试阶段~",伤心,"(0.0, 0.3)",j,,,,,,,,,0,0,0,0,3,12,84,6,,,,,,,,,,,,,,,,,,,,,,,,,,,,,,,,,,,,,,,,,,,,,,,,,,,,,,214.48520130000543,214.48520130000543,214.48520130000543,214.48520130000543,214.48520130000543,j,1,0.8056670000078157,215.30157670000335,,,,,,,,,,,,,,,,,,,,,,,230624_lkx,女,研究生及以上,21,001,2023-06-24_16h13.25.381,nalin_IRAP,2023.1.2,120.13094268969822,
"恭喜，你已达成80%正确率，可以继续实验

~请按空格键进入测试阶段~",忧郁,"(0.0, -0.15)",f,,,,,,,,,0,0,0,0,3,13,85,22,,,,,,,,,,,,,,,,,,,,,,,,,,,,,,,,,,,,,,,,,,,,,,,,,,,,,,215.80993380001746,215.80993380001746,215.80993380001746,215.80993380001746,215.80993380001746,f,1,0.9775506999576464,216.79733670002315,217.30121700000018,,,,,,,,,,,,,,,,,,,,,,230624_lkx,女,研究生及以上,21,001,2023-06-24_16h13.25.381,nalin_IRAP,2023.1.2,120.13094268969822,
"恭喜，你已达成80%正确率，可以继续实验

~请按空格键进入测试阶段~",难过,"(0.0, -0.15)",f,,,,,,,,,0,0,0,0,3,14,86,20,,,,,,,,,,,,,,,,,,,,,,,,,,,,,,,,,,,,,,,,,,,,,,,,,,,,,,217.30121700000018,217.30121700000018,217.30121700000018,217.30121700000018,217.30121700000018,f,1,0.6646301000146195,217.97729559999425,,,,,,,,,,,,,,,,,,,,,,,230624_lkx,女,研究生及以上,21,001,2023-06-24_16h13.25.381,nalin_IRAP,2023.1.2,120.13094268969822,
"恭喜，你已达成80%正确率，可以继续实验

~请按空格键进入测试阶段~",失落,"(0.0, -0.15)",f,,,,,,,,,0,0,0,0,3,15,87,19,,,,,,,,,,,,,,,,,,,,,,,,,,,,,,,,,,,,,,,,,,,,,,,,,,,,,,218.48438530002022,218.48438530002022,218.48438530002022,218.48438530002022,218.48438530002022,f,1,0.49120839999523014,218.99214400001802,,,,,,,,,,,,,,,,,,,,,,,230624_lkx,女,研究生及以上,21,001,2023-06-24_16h13.25.381,nalin_IRAP,2023.1.2,120.13094268969822,
"恭喜，你已达成80%正确率，可以继续实验

~请按空格键进入测试阶段~",高兴,"(0.0, 0.3)",f,,,,,,,,,0,0,0,0,3,16,88,0,,,,,,,,,,,,,,,,,,,,,,,,,,,,,,,,,,,,,,,,,,,,,,,,,,,,,,219.4999073999934,219.4999073999934,219.4999073999934,219.4999073999934,219.4999073999934,f,1,0.6471155000035651,220.1573235000251,,,,,,,,,,,,,,,,,,,,,,,230624_lkx,女,研究生及以上,21,001,2023-06-24_16h13.25.381,nalin_IRAP,2023.1.2,120.13094268969822,
"恭喜，你已达成80%正确率，可以继续实验

~请按空格键进入测试阶段~",快乐,"(0.0, 0.3)",f,,,,,,,,,0,0,0,0,3,17,89,1,,,,,,,,,,,,,,,,,,,,,,,,,,,,,,,,,,,,,,,,,,,,,,,,,,,,,,220.66882030002307,220.66882030002307,220.66882030002307,220.66882030002307,220.66882030002307,f,1,0.3951315999729559,221.07999019999988,221.5862454000162,,,,,,,,,,,,,,,,,,,,,,230624_lkx,女,研究生及以上,21,001,2023-06-24_16h13.25.381,nalin_IRAP,2023.1.2,120.13094268969822,
"恭喜，你已达成80%正确率，可以继续实验

~请按空格键进入测试阶段~",悲伤,"(0.0, 0.3)",j,,,,,,,,,0,0,0,0,3,18,90,9,,,,,,,,,,,,,,,,,,,,,,,,,,,,,,,,,,,,,,,,,,,,,,,,,,,,,,221.5862454000162,221.5862454000162,221.5862454000162,221.5862454000162,221.5862454000162,j,1,0.9294570999918506,222.52850760001456,223.03576050000265,,,,,,,,,,,,,,,,,,,,,,230624_lkx,女,研究生及以上,21,001,2023-06-24_16h13.25.381,nalin_IRAP,2023.1.2,120.13094268969822,
"恭喜，你已达成80%正确率，可以继续实验

~请按空格键进入测试阶段~",高兴,"(0.0, -0.15)",j,,,,,,,,,0,0,0,0,3,19,91,12,,,,,,,,,,,,,,,,,,,,,,,,,,,,,,,,,,,,,,,,,,,,,,,,,,,,,,223.03576050000265,223.03576050000265,223.03576050000265,223.03576050000265,223.03576050000265,j,1,2.2995918999658898,225.35042380000232,,,,,,,,,,,,,,,,,,,,,,,230624_lkx,女,研究生及以上,21,001,2023-06-24_16h13.25.381,nalin_IRAP,2023.1.2,120.13094268969822,
"恭喜，你已达成80%正确率，可以继续实验

~请按空格键进入测试阶段~",快乐,"(0.0, -0.15)",j,,,,,,,,,0,0,0,0,3,20,92,13,,,,,,,,,,,,,,,,,,,,,,,,,,,,,,,,,,,,,,,,,,,,,,,,,,,,,,225.86011440004222,225.86011440004222,225.86011440004222,225.86011440004222,225.86011440004222,j,1,0.5361098000430502,226.40623300004518,226.91174140002113,,,,,,,,,,,,,,,,,,,,,,230624_lkx,女,研究生及以上,21,001,2023-06-24_16h13.25.381,nalin_IRAP,2023.1.2,120.13094268969822,
"恭喜，你已达成80%正确率，可以继续实验

~请按空格键进入测试阶段~",喜悦,"(0.0, -0.15)",j,,,,,,,,,0,0,0,0,3,21,93,16,,,,,,,,,,,,,,,,,,,,,,,,,,,,,,,,,,,,,,,,,,,,,,,,,,,,,,226.91174140002113,226.91174140002113,226.91174140002113,226.91174140002113,226.91174140002113,j,1,0.4729899000376463,227.39535589999286,227.90368829999352,,,,,,,,,,,,,,,,,,,,,,230624_lkx,女,研究生及以上,21,001,2023-06-24_16h13.25.381,nalin_IRAP,2023.1.2,120.13094268969822,
"恭喜，你已达成80%正确率，可以继续实验

~请按空格键进入测试阶段~",悲伤,"(0.0, -0.15)",f,,,,,,,,,0,0,0,0,3,22,94,21,,,,,,,,,,,,,,,,,,,,,,,,,,,,,,,,,,,,,,,,,,,,,,,,,,,,,,227.90368829999352,227.90368829999352,227.90368829999352,227.90368829999352,227.90368829999352,f,1,0.8605572999804281,228.77467170002637,,,,,,,,,,,,,,,,,,,,,,,230624_lkx,女,研究生及以上,21,001,2023-06-24_16h13.25.381,nalin_IRAP,2023.1.2,120.13094268969822,
"恭喜，你已达成80%正确率，可以继续实验

~请按空格键进入测试阶段~",喜悦,"(0.0, 0.3)",f,,,,,,,,,0,0,0,0,3,23,95,4,,,,,,,,,,,,,,,,,,,,,,,,,,,,,,,,,,,,,,,,,,,,,,,,,,,,,,229.28530930000124,229.28530930000124,229.28530930000124,229.28530930000124,229.28530930000124,f,1,0.6816554999677464,229.98132030002307,230.4851760000456,,,,,,,,,,,,,,,,,,,,,,230624_lkx,女,研究生及以上,21,001,2023-06-24_16h13.25.381,nalin_IRAP,2023.1.2,120.13094268969822,
"恭喜，你已达成80%正确率，可以继续实验

~请按空格键进入测试阶段~",愉快,"(0.0, -0.15)",j,,,,,,,,,0,0,0,0,4,0,96,17,,,,,,,,,,,,,,,,,,,,,,,,,,,,,,,,,,,,,,,,,,,,,,,,,,,,,,230.4851760000456,230.4851760000456,230.4851760000456,230.4851760000456,230.4851760000456,j,1,0.913261599955149,231.4096013000235,,,,,,,,,,,,,,,,,,,,,,,230624_lkx,女,研究生及以上,21,001,2023-06-24_16h13.25.381,nalin_IRAP,2023.1.2,120.13094268969822,
"恭喜，你已达成80%正确率，可以继续实验

~请按空格键进入测试阶段~",悲伤,"(0.0, 0.3)",j,,,,,,,,,0,0,0,0,4,1,97,9,,,,,,,,,,,,,,,,,,,,,,,,,,,,,,,,,,,,,,,,,,,,,,,,,,,,,,231.918611400004,231.918611400004,231.918611400004,231.918611400004,231.918611400004,j,1,4.3333988999947906,236.26127060002182,,,,,,,,,,,,,,,,,,,,,,,230624_lkx,女,研究生及以上,21,001,2023-06-24_16h13.25.381,nalin_IRAP,2023.1.2,120.13094268969822,
"恭喜，你已达成80%正确率，可以继续实验

~请按空格键进入测试阶段~",伤心,"(0.0, 0.3)",j,,,,,,,,,0,0,0,0,4,2,98,6,,,,,,,,,,,,,,,,,,,,,,,,,,,,,,,,,,,,,,,,,,,,,,,,,,,,,,236.76684380002553,236.76684380002553,236.76684380002553,236.76684380002553,236.76684380002553,j,1,0.7969751000055112,237.5749859000207,,,,,,,,,,,,,,,,,,,,,,,230624_lkx,女,研究生及以上,21,001,2023-06-24_16h13.25.381,nalin_IRAP,2023.1.2,120.13094268969822,
"恭喜，你已达成80%正确率，可以继续实验

~请按空格键进入测试阶段~",喜悦,"(0.0, -0.15)",j,,,,,,,,,0,0,0,0,4,3,99,16,,,,,,,,,,,,,,,,,,,,,,,,,,,,,,,,,,,,,,,,,,,,,,,,,,,,,,238.08487730001798,238.08487730001798,238.08487730001798,238.08487730001798,238.08487730001798,j,1,1.2558421999565326,239.34823080000933,239.85086490004323,,,,,,,,,,,,,,,,,,,,,,230624_lkx,女,研究生及以上,21,001,2023-06-24_16h13.25.381,nalin_IRAP,2023.1.2,120.13094268969822,
"恭喜，你已达成80%正确率，可以继续实验

~请按空格键进入测试阶段~",忧郁,"(0.0, -0.15)",f,,,,,,,,,0,0,0,0,4,4,100,22,,,,,,,,,,,,,,,,,,,,,,,,,,,,,,,,,,,,,,,,,,,,,,,,,,,,,,239.85086490004323,239.85086490004323,239.85086490004323,239.85086490004323,239.85086490004323,f,1,0.7902276999666356,240.65274750004755,,,,,,,,,,,,,,,,,,,,,,,230624_lkx,女,研究生及以上,21,001,2023-06-24_16h13.25.381,nalin_IRAP,2023.1.2,120.13094268969822,
"恭喜，你已达成80%正确率，可以继续实验

~请按空格键进入测试阶段~",难过,"(0.0, -0.15)",f,,,,,,,,,0,0,0,0,4,5,101,20,,,,,,,,,,,,,,,,,,,,,,,,,,,,,,,,,,,,,,,,,,,,,,,,,,,,,,241.15972950001014,241.15972950001014,241.15972950001014,241.15972950001014,241.15972950001014,f,1,0.5711441999883391,241.73878250003327,242.24306490004528,,,,,,,,,,,,,,,,,,,,,,230624_lkx,女,研究生及以上,21,001,2023-06-24_16h13.25.381,nalin_IRAP,2023.1.2,120.13094268969822,
"恭喜，你已达成80%正确率，可以继续实验

~请按空格键进入测试阶段~",愁苦,"(0.0, -0.15)",f,,,,,,,,,0,0,0,0,4,6,102,23,,,,,,,,,,,,,,,,,,,,,,,,,,,,,,,,,,,,,,,,,,,,,,,,,,,,,,242.24306490004528,242.24306490004528,242.24306490004528,242.24306490004528,242.24306490004528,f,1,0.5087828999967314,242.76095389999682,,,,,,,,,,,,,,,,,,,,,,,230624_lkx,女,研究生及以上,21,001,2023-06-24_16h13.25.381,nalin_IRAP,2023.1.2,120.13094268969822,
"恭喜，你已达成80%正确率，可以继续实验

~请按空格键进入测试阶段~",欣喜,"(0.0, 0.3)",f,,,,,,,,,0,0,0,0,4,7,103,3,,,,,,,,,,,,,,,,,,,,,,,,,,,,,,,,,,,,,,,,,,,,,,,,,,,,,,243.26834850001615,243.26834850001615,243.26834850001615,243.26834850001615,243.26834850001615,f,1,0.6981204000185244,243.97859630000312,244.48459970002295,,,,,,,,,,,,,,,,,,,,,,230624_lkx,女,研究生及以上,21,001,2023-06-24_16h13.25.381,nalin_IRAP,2023.1.2,120.13094268969822,
"恭喜，你已达成80%正确率，可以继续实验

~请按空格键进入测试阶段~",伤心,"(0.0, -0.15)",f,,,,,,,,,0,0,0,0,4,8,104,18,,,,,,,,,,,,,,,,,,,,,,,,,,,,,,,,,,,,,,,,,,,,,,,,,,,,,,244.48459970002295,244.48459970002295,244.48459970002295,244.48459970002295,244.48459970002295,f,1,1.3870851999963634,245.8870608000434,246.3938446000102,,,,,,,,,,,,,,,,,,,,,,230624_lkx,女,研究生及以上,21,001,2023-06-24_16h13.25.381,nalin_IRAP,2023.1.2,120.13094268969822,
"恭喜，你已达成80%正确率，可以继续实验

~请按空格键进入测试阶段~",欣喜,"(0.0, -0.15)",j,,,,,,,,,0,0,0,0,4,9,105,15,,,,,,,,,,,,,,,,,,,,,,,,,,,,,,,,,,,,,,,,,,,,,,,,,,,,,,246.3938446000102,246.3938446000102,246.3938446000102,246.3938446000102,246.3938446000102,j,1,1.1048520000185817,247.5145169000025,248.01856820000103,,,,,,,,,,,,,,,,,,,,,,230624_lkx,女,研究生及以上,21,001,2023-06-24_16h13.25.381,nalin_IRAP,2023.1.2,120.13094268969822,
"恭喜，你已达成80%正确率，可以继续实验

~请按空格键进入测试阶段~",忧郁,"(0.0, 0.3)",j,,,,,,,,,0,0,0,0,4,10,106,10,,,,,,,,,,,,,,,,,,,,,,,,,,,,,,,,,,,,,,,,,,,,,,,,,,,,,,248.01856820000103,248.01856820000103,248.01856820000103,248.01856820000103,248.01856820000103,j,1,0.7590731999953277,248.79159140004776,,,,,,,,,,,,,,,,,,,,,,,230624_lkx,女,研究生及以上,21,001,2023-06-24_16h13.25.381,nalin_IRAP,2023.1.2,120.13094268969822,
"恭喜，你已达成80%正确率，可以继续实验

~请按空格键进入测试阶段~",高兴,"(0.0, -0.15)",j,,,,,,,,,0,0,0,0,4,11,107,12,,,,,,,,,,,,,,,,,,,,,,,,,,,,,,,,,,,,,,,,,,,,,,,,,,,,,,249.30077990004793,249.30077990004793,249.30077990004793,249.30077990004793,249.30077990004793,j,1,0.7601167000248097,250.0688678000006,,,,,,,,,,,,,,,,,,,,,,,230624_lkx,女,研究生及以上,21,001,2023-06-24_16h13.25.381,nalin_IRAP,2023.1.2,120.13094268969822,
"恭喜，你已达成80%正确率，可以继续实验

~请按空格键进入测试阶段~",失落,"(0.0, -0.15)",f,,,,,,,,,0,0,0,0,4,12,108,19,,,,,,,,,,,,,,,,,,,,,,,,,,,,,,,,,,,,,,,,,,,,,,,,,,,,,,250.57687160000205,250.57687160000205,250.57687160000205,250.57687160000205,250.57687160000205,f,1,0.7641967000090517,251.35145419999026,,,,,,,,,,,,,,,,,,,,,,,230624_lkx,女,研究生及以上,21,001,2023-06-24_16h13.25.381,nalin_IRAP,2023.1.2,120.13094268969822,
"恭喜，你已达成80%正确率，可以继续实验

~请按空格键进入测试阶段~",难过,"(0.0, 0.3)",j,,,,,,,,,0,0,0,0,4,13,109,8,,,,,,,,,,,,,,,,,,,,,,,,,,,,,,,,,,,,,,,,,,,,,,,,,,,,,,251.8602549000061,251.8602549000061,251.8602549000061,251.8602549000061,251.8602549000061,j,1,0.5796460999990813,252.45065740001155,,,,,,,,,,,,,,,,,,,,,,,230624_lkx,女,研究生及以上,21,001,2023-06-24_16h13.25.381,nalin_IRAP,2023.1.2,120.13094268969822,
"恭喜，你已达成80%正确率，可以继续实验

~请按空格键进入测试阶段~",悲伤,"(0.0, -0.15)",f,,,,,,,,,0,0,0,0,4,14,110,21,,,,,,,,,,,,,,,,,,,,,,,,,,,,,,,,,,,,,,,,,,,,,,,,,,,,,,252.96151980001014,252.96151980001014,252.96151980001014,252.96151980001014,252.96151980001014,f,1,1.1442299999762326,254.11506989999907,,,,,,,,,,,,,,,,,,,,,,,230624_lkx,女,研究生及以上,21,001,2023-06-24_16h13.25.381,nalin_IRAP,2023.1.2,120.13094268969822,
"恭喜，你已达成80%正确率，可以继续实验

~请按空格键进入测试阶段~",快乐,"(0.0, 0.3)",f,,,,,,,,,0,0,0,0,4,15,111,1,,,,,,,,,,,,,,,,,,,,,,,,,,,,,,,,,,,,,,,,,,,,,,,,,,,,,,254.6269899000181,254.6269899000181,254.6269899000181,254.6269899000181,254.6269899000181,f,1,0.5892984000383876,255.22388629999477,,,,,,,,,,,,,,,,,,,,,,,230624_lkx,女,研究生及以上,21,001,2023-06-24_16h13.25.381,nalin_IRAP,2023.1.2,120.13094268969822,
"恭喜，你已达成80%正确率，可以继续实验

~请按空格键进入测试阶段~",愁苦,"(0.0, 0.3)",j,,,,,,,,,0,0,0,0,4,16,112,11,,,,,,,,,,,,,,,,,,,,,,,,,,,,,,,,,,,,,,,,,,,,,,,,,,,,,,255.73412800004007,255.73412800004007,255.73412800004007,255.73412800004007,255.73412800004007,j,1,0.5175485000363551,256.26501840003766,,,,,,,,,,,,,,,,,,,,,,,230624_lkx,女,研究生及以上,21,001,2023-06-24_16h13.25.381,nalin_IRAP,2023.1.2,120.13094268969822,
"恭喜，你已达成80%正确率，可以继续实验

~请按空格键进入测试阶段~",喜悦,"(0.0, 0.3)",f,,,,,,,,,0,0,0,0,4,17,113,4,,,,,,,,,,,,,,,,,,,,,,,,,,,,,,,,,,,,,,,,,,,,,,,,,,,,,,256.77693170000566,256.77693170000566,256.77693170000566,256.77693170000566,256.77693170000566,f,1,0.6635882999980822,257.4494699999923,,,,,,,,,,,,,,,,,,,,,,,230624_lkx,女,研究生及以上,21,001,2023-06-24_16h13.25.381,nalin_IRAP,2023.1.2,120.13094268969822,
"恭喜，你已达成80%正确率，可以继续实验

~请按空格键进入测试阶段~",失落,"(0.0, 0.3)",j,,,,,,,,,0,0,0,0,4,18,114,7,,,,,,,,,,,,,,,,,,,,,,,,,,,,,,,,,,,,,,,,,,,,,,,,,,,,,,257.95983340003295,257.95983340003295,257.95983340003295,257.95983340003295,257.95983340003295,j,1,0.7009744000388309,258.6727816000348,259.1777201000368,,,,,,,,,,,,,,,,,,,,,,230624_lkx,女,研究生及以上,21,001,2023-06-24_16h13.25.381,nalin_IRAP,2023.1.2,120.13094268969822,
"恭喜，你已达成80%正确率，可以继续实验

~请按空格键进入测试阶段~",愉悦,"(0.0, 0.3)",f,,,,,,,,,0,0,0,0,4,19,115,2,,,,,,,,,,,,,,,,,,,,,,,,,,,,,,,,,,,,,,,,,,,,,,,,,,,,,,259.1777201000368,259.1777201000368,259.1777201000368,259.1777201000368,259.1777201000368,f,1,0.5018266999977641,259.6933275000192,,,,,,,,,,,,,,,,,,,,,,,230624_lkx,女,研究生及以上,21,001,2023-06-24_16h13.25.381,nalin_IRAP,2023.1.2,120.13094268969822,
"恭喜，你已达成80%正确率，可以继续实验

~请按空格键进入测试阶段~",快乐,"(0.0, -0.15)",j,,,,,,,,,0,0,0,0,4,20,116,13,,,,,,,,,,,,,,,,,,,,,,,,,,,,,,,,,,,,,,,,,,,,,,,,,,,,,,260.2025322000263,260.2025322000263,260.2025322000263,260.2025322000263,260.2025322000263,j,1,0.7867920999997295,260.99975380004616,,,,,,,,,,,,,,,,,,,,,,,230624_lkx,女,研究生及以上,21,001,2023-06-24_16h13.25.381,nalin_IRAP,2023.1.2,120.13094268969822,
"恭喜，你已达成80%正确率，可以继续实验

~请按空格键进入测试阶段~",愉快,"(0.0, 0.3)",f,,,,,,,,,0,0,0,0,4,21,117,5,,,,,,,,,,,,,,,,,,,,,,,,,,,,,,,,,,,,,,,,,,,,,,,,,,,,,,261.50999910000246,261.50999910000246,261.50999910000246,261.50999910000246,261.50999910000246,f,1,0.8826292000012472,262.4074991000234,,,,,,,,,,,,,,,,,,,,,,,230624_lkx,女,研究生及以上,21,001,2023-06-24_16h13.25.381,nalin_IRAP,2023.1.2,120.13094268969822,
"恭喜，你已达成80%正确率，可以继续实验

~请按空格键进入测试阶段~",愉悦,"(0.0, -0.15)",j,,,,,,,,,0,0,0,0,4,22,118,14,,,,,,,,,,,,,,,,,,,,,,,,,,,,,,,,,,,,,,,,,,,,,,,,,,,,,,262.91510480002034,262.91510480002034,262.91510480002034,262.91510480002034,262.91510480002034,j,1,0.7739141000201926,263.7053394000395,264.2106997999945,,,,,,,,,,,,,,,,,,,,,,230624_lkx,女,研究生及以上,21,001,2023-06-24_16h13.25.381,nalin_IRAP,2023.1.2,120.13094268969822,
"恭喜，你已达成80%正确率，可以继续实验

~请按空格键进入测试阶段~",高兴,"(0.0, 0.3)",f,,,,,,,,,0,0,0,0,4,23,119,0,,,,,,,,,,,,,,,,,,,,,,,,,,,,,,,,,,,,,,,,,,,,,,,,,,,,,,264.2106997999945,264.2106997999945,264.2106997999945,264.2106997999945,264.2106997999945,f,1,0.5664442999986932,264.78993770002853,,,,,,,,,,,,,,,,,,,,,,,230624_lkx,女,研究生及以上,21,001,2023-06-24_16h13.25.381,nalin_IRAP,2023.1.2,120.13094268969822,
"恭喜，你已达成80%正确率，可以继续实验

~请按空格键进入测试阶段~",悲伤,"(0.0, 0.3)",j,,,,,,,,,0,0,0,0,5,0,120,9,,,,,,,,,,,,,,,,,,,,,,,,,,,,,,,,,,,,,,,,,,,,,,,,,,,,,,265.3019844000228,265.3019844000228,265.3019844000228,265.3019844000228,265.3019844000228,j,1,1.3138102000229992,266.630215400015,267.1434519000468,,,,,,,,,,,,,,,,,,,,,,230624_lkx,女,研究生及以上,21,001,2023-06-24_16h13.25.381,nalin_IRAP,2023.1.2,120.13094268969822,
"恭喜，你已达成80%正确率，可以继续实验

~请按空格键进入测试阶段~",,,,,,,,,,,,0,0,0,0,,,,,,,,,,,,,,,,,,,,,,,,,,,,,,,,,,,,,,,,,,,,,,,,,,,,,,,,,,,,,,,,,,,,,,,,,,,,,,,,,,,,,,,,,230624_lkx,女,研究生及以上,21,001,2023-06-24_16h13.25.381,nalin_IRAP,2023.1.2,120.13094268969822,
,,,,,,,,,,,,,,,,,,,,,,,,,,,,,,,,,,,,,,,,,,,,,,,,,,,,,,,,,,,,,,,,,,,,,,,,,,,,,,,,,,,267.1434519000468,267.1434519000468,267.1434519000468,267.1434519000468,267.1434519000468,267.1434519000468,267.1434519000468,267.1434519000468,267.1434519000468,267.1434519000468,267.1434519000468,267.1434519000468,267.1434519000468,space,4.845066400012001,,,,,,,230624_lkx,女,研究生及以上,21,001,2023-06-24_16h13.25.381,nalin_IRAP,2023.1.2,120.13094268969822,
~请按空格键进入练习阶段~,愉悦,"(0.0, -0.15)",f,,,,,,,,,,,,,,,,,0,0,0,0,0,0,0,14,,,,,,,,,,,,,,,,,,,,,,,,,,,,272.04341980000027,272.04341980000027,space,1.1215970999910496,273.22376429999713,273.22376429999713,273.22376429999713,273.22376429999713,273.22376429999713,f,1,1.4418420000001788,,,,,,,,,,,,,,,,,,,,,,,,,,,,,,,,274.68511110002873,,,,,,230624_lkx,女,研究生及以上,21,001,2023-06-24_16h13.25.381,nalin_IRAP,2023.1.2,120.13094268969822,
~请按空格键进入练习阶段~,欣喜,"(0.0, 0.3)",j,,,,,,,,,,,,,,,,,0,0,0,0,0,1,1,3,,,,,,,,,,,,,,,,,,,,,,,,,,,,,,,,275.19193890003953,275.19193890003953,275.19193890003953,275.19193890003953,275.19193890003953,j,1,0.7635436999844387,,,,,,,,,,,,,,,,,,,,,,,,,,,,,,,,275.97392290004063,,,,,,230624_lkx,女,研究生及以上,21,001,2023-06-24_16h13.25.381,nalin_IRAP,2023.1.2,120.13094268969822,
~请按空格键进入练习阶段~,难过,"(0.0, -0.15)",j,,,,,,,,,,,,,,,,,0,0,0,0,0,2,2,20,,,,,,,,,,,,,,,,,,,,,,,,,,,,,,,,276.484729400021,276.484729400021,276.484729400021,276.484729400021,276.484729400021,j,1,1.124844399979338,,,,,,,,,,,,,,,,,,,,,,,,,,,,,,,,277.62090580002405,278.1266678000102,,,,,230624_lkx,女,研究生及以上,21,001,2023-06-24_16h13.25.381,nalin_IRAP,2023.1.2,120.13094268969822,
~请按空格键进入练习阶段~,快乐,"(0.0, -0.15)",f,,,,,,,,,,,,,,,,,0,0,0,0,0,3,3,13,,,,,,,,,,,,,,,,,,,,,,,,,,,,,,,,278.1266678000102,278.1266678000102,278.1266678000102,278.1266678000102,278.1266678000102,f,1,1.3014644000213593,,,,,,,,,,,,,,,,,,,,,,,,,,,,,,,,279.44309640000574,,,,,,230624_lkx,女,研究生及以上,21,001,2023-06-24_16h13.25.381,nalin_IRAP,2023.1.2,120.13094268969822,
~请按空格键进入练习阶段~,失落,"(0.0, -0.15)",j,,,,,,,,,,,,,,,,,0,0,0,0,0,4,4,19,,,,,,,,,,,,,,,,,,,,,,,,,,,,,,,,279.9501388000208,279.9501388000208,279.9501388000208,279.9501388000208,279.9501388000208,j,1,2.8033025999902748,,,,,,,,,,,,,,,,,,,,,,,,,,,,,,,,282.762199000048,283.2675053999992,,,,,230624_lkx,女,研究生及以上,21,001,2023-06-24_16h13.25.381,nalin_IRAP,2023.1.2,120.13094268969822,
~请按空格键进入练习阶段~,喜悦,"(0.0, -0.15)",f,,,,,,,,,,,,,,,,,0,0,0,0,0,5,5,16,,,,,,,,,,,,,,,,,,,,,,,,,,,,,,,,283.2675053999992,283.2675053999992,283.2675053999992,283.2675053999992,283.2675053999992,f,1,0.8406530999927782,,,,,,,,,,,,,,,,,,,,,,,,,,,,,,,,284.1244616000331,284.6248914000462,,,,,230624_lkx,女,研究生及以上,21,001,2023-06-24_16h13.25.381,nalin_IRAP,2023.1.2,120.13094268969822,
~请按空格键进入练习阶段~,忧郁,"(0.0, -0.15)",j,,,,,,,,,,,,,,,,,0,0,0,0,0,6,6,22,,,,,,,,,,,,,,,,,,,,,,,,,,,,,,,,284.6248914000462,284.6248914000462,284.6248914000462,284.6248914000462,284.6248914000462,j,1,0.8927595000131987,,,,,,,,,,,,,,,,,,,,,,,,,,,,,,,,285.5303707999992,286.035926200042,,,,,230624_lkx,女,研究生及以上,21,001,2023-06-24_16h13.25.381,nalin_IRAP,2023.1.2,120.13094268969822,
~请按空格键进入练习阶段~,高兴,"(0.0, 0.3)",j,,,,,,,,,,,,,,,,,0,0,0,0,0,7,7,0,,,,,,,,,,,,,,,,,,,,,,,,,,,,,,,,286.035926200042,286.035926200042,286.035926200042,286.035926200042,286.035926200042,j,1,2.337424200028181,,,,,,,,,,,,,,,,,,,,,,,,,,,,,,,,288.3884585000342,288.89217100001406,,,,,230624_lkx,女,研究生及以上,21,001,2023-06-24_16h13.25.381,nalin_IRAP,2023.1.2,120.13094268969822,
~请按空格键进入练习阶段~,欣喜,"(0.0, -0.15)",f,,,,,,,,,,,,,,,,,0,0,0,0,0,8,8,15,,,,,,,,,,,,,,,,,,,,,,,,,,,,,,,,288.89217100001406,288.89217100001406,288.89217100001406,288.89217100001406,288.89217100001406,f,1,1.5641651999903843,,,,,,,,,,,,,,,,,,,,,,,,,,,,,,,,290.4720720000332,290.9763244999922,,,,,230624_lkx,女,研究生及以上,21,001,2023-06-24_16h13.25.381,nalin_IRAP,2023.1.2,120.13094268969822,
~请按空格键进入练习阶段~,愉悦,"(0.0, 0.3)",j,,,,,,,,,,,,,,,,,0,0,0,0,0,9,9,2,,,,,,,,,,,,,,,,,,,,,,,,,,,,,,,,290.9763244999922,290.9763244999922,290.9763244999922,290.9763244999922,290.9763244999922,j,1,0.8599952000076883,,,,,,,,,,,,,,,,,,,,,,,,,,,,,,,,291.8486992000253,,,,,,230624_lkx,女,研究生及以上,21,001,2023-06-24_16h13.25.381,nalin_IRAP,2023.1.2,120.13094268969822,
~请按空格键进入练习阶段~,失落,"(0.0, 0.3)",f,,,,,,,,,,,,,,,,,0,0,0,0,0,10,10,7,,,,,,,,,,,,,,,,,,,,,,,,,,,,,,,,292.35883099999046,292.35883099999046,292.35883099999046,292.35883099999046,292.35883099999046,f,1,3.475978899979964,,,,,,,,,,,,,,,,,,,,,,,,,,,,,,,,295.8487991000293,,,,,,230624_lkx,女,研究生及以上,21,001,2023-06-24_16h13.25.381,nalin_IRAP,2023.1.2,120.13094268969822,
~请按空格键进入练习阶段~,快乐,"(0.0, 0.3)",j,,,,,,,,,,,,,,,,,0,0,0,0,0,11,11,1,,,,,,,,,,,,,,,,,,,,,,,,,,,,,,,,296.35831250000047,296.35831250000047,296.35831250000047,296.35831250000047,296.35831250000047,j,1,0.6108339999918826,,,,,,,,,,,,,,,,,,,,,,,,,,,,,,,,296.9801203000243,297.4850130000268,,,,,230624_lkx,女,研究生及以上,21,001,2023-06-24_16h13.25.381,nalin_IRAP,2023.1.2,120.13094268969822,
~请按空格键进入练习阶段~,悲伤,"(0.0, -0.15)",j,,,,,,,,,,,,,,,,,0,0,0,0,0,12,12,21,,,,,,,,,,,,,,,,,,,,,,,,,,,,,,,,297.4850130000268,297.4850130000268,297.4850130000268,297.4850130000268,297.4850130000268,j,1,1.2020473000011407,,,,,,,,,,,,,,,,,,,,,,,,,,,,,,,,298.6969029000029,299.2000030000345,,,,,230624_lkx,女,研究生及以上,21,001,2023-06-24_16h13.25.381,nalin_IRAP,2023.1.2,120.13094268969822,
~请按空格键进入练习阶段~,伤心,"(0.0, 0.3)",f,,,,,,,,,,,,,,,,,0,0,0,0,0,13,13,6,,,,,,,,,,,,,,,,,,,,,,,,,,,,,,,,299.2000030000345,299.2000030000345,299.2000030000345,299.2000030000345,299.2000030000345,j,0,2.041515899996739,,,,,,,,,,,,,,,,,,,,,,,,,,,,,,,,301.25862820004113,,,,,,230624_lkx,女,研究生及以上,21,001,2023-06-24_16h13.25.381,nalin_IRAP,2023.1.2,120.13094268969822,
~请按空格键进入练习阶段~,愉快,"(0.0, -0.15)",f,,,,,,,,,,,,,,,,,0,0,0,0,0,14,14,17,,,,,,,,,,,,,,,,,,,,,,,,,,,,,,,,301.7660320000141,301.7660320000141,301.7660320000141,301.7660320000141,301.7660320000141,f,1,2.122600300004706,,,,,,,,,,,,,,,,,,,,,,,,,,,,,,,,303.8988300000201,,,,,,230624_lkx,女,研究生及以上,21,001,2023-06-24_16h13.25.381,nalin_IRAP,2023.1.2,120.13094268969822,
~请按空格键进入练习阶段~,愁苦,"(0.0, -0.15)",j,,,,,,,,,,,,,,,,,0,0,0,0,0,15,15,23,,,,,,,,,,,,,,,,,,,,,,,,,,,,,,,,304.405233700003,304.405233700003,304.405233700003,304.405233700003,304.405233700003,j,1,0.7881646999740042,,,,,,,,,,,,,,,,,,,,,,,,,,,,,,,,305.20530259999214,305.7100231000222,,,,,230624_lkx,女,研究生及以上,21,001,2023-06-24_16h13.25.381,nalin_IRAP,2023.1.2,120.13094268969822,
~请按空格键进入练习阶段~,喜悦,"(0.0, 0.3)",j,,,,,,,,,,,,,,,,,0,0,0,0,0,16,16,4,,,,,,,,,,,,,,,,,,,,,,,,,,,,,,,,305.7100231000222,305.7100231000222,305.7100231000222,305.7100231000222,305.7100231000222,j,1,1.1593517999863252,,,,,,,,,,,,,,,,,,,,,,,,,,,,,,,,306.8803068000125,307.38447879999876,,,,,230624_lkx,女,研究生及以上,21,001,2023-06-24_16h13.25.381,nalin_IRAP,2023.1.2,120.13094268969822,
~请按空格键进入练习阶段~,愁苦,"(0.0, 0.3)",f,,,,,,,,,,,,,,,,,0,0,0,0,0,17,17,11,,,,,,,,,,,,,,,,,,,,,,,,,,,,,,,,307.38447879999876,307.38447879999876,307.38447879999876,307.38447879999876,307.38447879999876,f,1,0.963887199992314,,,,,,,,,,,,,,,,,,,,,,,,,,,,,,,,308.36384569999063,308.86672560003353,,,,,230624_lkx,女,研究生及以上,21,001,2023-06-24_16h13.25.381,nalin_IRAP,2023.1.2,120.13094268969822,
~请按空格键进入练习阶段~,难过,"(0.0, 0.3)",f,,,,,,,,,,,,,,,,,0,0,0,0,0,18,18,8,,,,,,,,,,,,,,,,,,,,,,,,,,,,,,,,308.86672560003353,308.86672560003353,308.86672560003353,308.86672560003353,308.86672560003353,f,1,0.5979180000140332,,,,,,,,,,,,,,,,,,,,,,,,,,,,,,,,309.481838000007,,,,,,230624_lkx,女,研究生及以上,21,001,2023-06-24_16h13.25.381,nalin_IRAP,2023.1.2,120.13094268969822,
~请按空格键进入练习阶段~,愉快,"(0.0, 0.3)",j,,,,,,,,,,,,,,,,,0,0,0,0,0,19,19,5,,,,,,,,,,,,,,,,,,,,,,,,,,,,,,,,309.99146970000584,309.99146970000584,309.99146970000584,309.99146970000584,309.99146970000584,j,1,0.6589752999716438,,,,,,,,,,,,,,,,,,,,,,,,,,,,,,,,310.6671995000215,,,,,,230624_lkx,女,研究生及以上,21,001,2023-06-24_16h13.25.381,nalin_IRAP,2023.1.2,120.13094268969822,
~请按空格键进入练习阶段~,忧郁,"(0.0, 0.3)",f,,,,,,,,,,,,,,,,,0,0,0,0,0,20,20,10,,,,,,,,,,,,,,,,,,,,,,,,,,,,,,,,311.1745268999948,311.1745268999948,311.1745268999948,311.1745268999948,311.1745268999948,f,1,1.6810675000306219,,,,,,,,,,,,,,,,,,,,,,,,,,,,,,,,312.86351060000015,313.4073618000257,,,,,230624_lkx,女,研究生及以上,21,001,2023-06-24_16h13.25.381,nalin_IRAP,2023.1.2,120.13094268969822,
~请按空格键进入练习阶段~,,,,,,,,,,,,,,,,,,,,0,0,0,0,,,,,,,,,,,,,,,,,,,,,,,,,,,,,,,,,,,,,,,,,,,,,,,,,,,,,,,,,,,,,,,,,,,,,,,,,,,,,,,,,230624_lkx,女,研究生及以上,21,001,2023-06-24_16h13.25.381,nalin_IRAP,2023.1.2,120.13094268969822,
"恭喜，你已达成80%正确率，可以继续实验

~请按空格键进入测试阶段~",快乐,"(0.0, -0.15)",f,,,,,,,,,,,,,,,,,,,,,,,,,0,0,0,0,0,0,0,13,,,,,,,,,,,,,,,,,,,,,,,,,,,,,,,,,,313.4073618000257,313.4073618000257,space,0.944544899975881,314.4102740000235,314.4102740000235,314.4102740000235,314.4102740000235,314.4102740000235,f,1,6.028000699996483,,,,,,,,,,,,,,,,,,,,320.4487189000356,,,,230624_lkx,女,研究生及以上,21,001,2023-06-24_16h13.25.381,nalin_IRAP,2023.1.2,120.13094268969822,
"恭喜，你已达成80%正确率，可以继续实验

~请按空格键进入测试阶段~",高兴,"(0.0, -0.15)",f,,,,,,,,,,,,,,,,,,,,,,,,,0,0,0,0,0,1,1,12,,,,,,,,,,,,,,,,,,,,,,,,,,,,,,,,,,,,,,320.95879200001946,320.95879200001946,320.95879200001946,320.95879200001946,320.95879200001946,f,1,0.6052352999686264,,,,,,,,,,,,,,,,,,,,321.57225389999803,322.07777200004784,,,230624_lkx,女,研究生及以上,21,001,2023-06-24_16h13.25.381,nalin_IRAP,2023.1.2,120.13094268969822,
"恭喜，你已达成80%正确率，可以继续实验

~请按空格键进入测试阶段~",失落,"(0.0, -0.15)",j,,,,,,,,,,,,,,,,,,,,,,,,,0,0,0,0,0,2,2,19,,,,,,,,,,,,,,,,,,,,,,,,,,,,,,,,,,,,,,322.07777200004784,322.07777200004784,322.07777200004784,322.07777200004784,322.07777200004784,j,1,0.566177999950014,,,,,,,,,,,,,,,,,,,,322.65503359999275,323.15842630004045,,,230624_lkx,女,研究生及以上,21,001,2023-06-24_16h13.25.381,nalin_IRAP,2023.1.2,120.13094268969822,
"恭喜，你已达成80%正确率，可以继续实验

~请按空格键进入测试阶段~",难过,"(0.0, 0.3)",f,,,,,,,,,,,,,,,,,,,,,,,,,0,0,0,0,0,3,3,8,,,,,,,,,,,,,,,,,,,,,,,,,,,,,,,,,,,,,,323.15842630004045,323.15842630004045,323.15842630004045,323.15842630004045,323.15842630004045,f,1,1.4403404999757186,,,,,,,,,,,,,,,,,,,,324.6133601000183,325.1172635999974,,,230624_lkx,女,研究生及以上,21,001,2023-06-24_16h13.25.381,nalin_IRAP,2023.1.2,120.13094268969822,
"恭喜，你已达成80%正确率，可以继续实验

~请按空格键进入测试阶段~",喜悦,"(0.0, -0.15)",f,,,,,,,,,,,,,,,,,,,,,,,,,0,0,0,0,0,4,4,16,,,,,,,,,,,,,,,,,,,,,,,,,,,,,,,,,,,,,,325.1172635999974,325.1172635999974,325.1172635999974,325.1172635999974,325.1172635999974,f,1,0.8524341000011191,,,,,,,,,,,,,,,,,,,,325.9820514000021,,,,230624_lkx,女,研究生及以上,21,001,2023-06-24_16h13.25.381,nalin_IRAP,2023.1.2,120.13094268969822,
"恭喜，你已达成80%正确率，可以继续实验

~请按空格键进入测试阶段~",愉快,"(0.0, -0.15)",f,,,,,,,,,,,,,,,,,,,,,,,,,0,0,0,0,0,5,5,17,,,,,,,,,,,,,,,,,,,,,,,,,,,,,,,,,,,,,,326.49184770003194,326.49184770003194,326.49184770003194,326.49184770003194,326.49184770003194,f,1,0.5733611999894492,,,,,,,,,,,,,,,,,,,,327.08002600003965,327.58253870002227,,,230624_lkx,女,研究生及以上,21,001,2023-06-24_16h13.25.381,nalin_IRAP,2023.1.2,120.13094268969822,
"恭喜，你已达成80%正确率，可以继续实验

~请按空格键进入测试阶段~",高兴,"(0.0, 0.3)",j,,,,,,,,,,,,,,,,,,,,,,,,,0,0,0,0,0,6,6,0,,,,,,,,,,,,,,,,,,,,,,,,,,,,,,,,,,,,,,327.58253870002227,327.58253870002227,327.58253870002227,327.58253870002227,327.58253870002227,j,1,0.7716862999950536,,,,,,,,,,,,,,,,,,,,328.36336180003127,328.86846309999237,,,230624_lkx,女,研究生及以上,21,001,2023-06-24_16h13.25.381,nalin_IRAP,2023.1.2,120.13094268969822,
"恭喜，你已达成80%正确率，可以继续实验

~请按空格键进入测试阶段~",悲伤,"(0.0, 0.3)",f,,,,,,,,,,,,,,,,,,,,,,,,,0,0,0,0,0,7,7,9,,,,,,,,,,,,,,,,,,,,,,,,,,,,,,,,,,,,,,328.86846309999237,328.86846309999237,328.86846309999237,328.86846309999237,328.86846309999237,f,1,1.7168153999955393,,,,,,,,,,,,,,,,,,,,330.5968389000045,331.10131810000166,,,230624_lkx,女,研究生及以上,21,001,2023-06-24_16h13.25.381,nalin_IRAP,2023.1.2,120.13094268969822,
"恭喜，你已达成80%正确率，可以继续实验

~请按空格键进入测试阶段~",快乐,"(0.0, 0.3)",j,,,,,,,,,,,,,,,,,,,,,,,,,0,0,0,0,0,8,8,1,,,,,,,,,,,,,,,,,,,,,,,,,,,,,,,,,,,,,,331.10131810000166,331.10131810000166,331.10131810000166,331.10131810000166,331.10131810000166,j,1,1.3013390999985859,,,,,,,,,,,,,,,,,,,,332.41332089999923,332.9181038000388,,,230624_lkx,女,研究生及以上,21,001,2023-06-24_16h13.25.381,nalin_IRAP,2023.1.2,120.13094268969822,
"恭喜，你已达成80%正确率，可以继续实验

~请按空格键进入测试阶段~",愉悦,"(0.0, -0.15)",f,,,,,,,,,,,,,,,,,,,,,,,,,0,0,0,0,0,9,9,14,,,,,,,,,,,,,,,,,,,,,,,,,,,,,,,,,,,,,,332.9181038000388,332.9181038000388,332.9181038000388,332.9181038000388,332.9181038000388,f,1,2.0709545999998227,,,,,,,,,,,,,,,,,,,,334.9970378000289,335.50111010001274,,,230624_lkx,女,研究生及以上,21,001,2023-06-24_16h13.25.381,nalin_IRAP,2023.1.2,120.13094268969822,
"恭喜，你已达成80%正确率，可以继续实验

~请按空格键进入测试阶段~",忧郁,"(0.0, -0.15)",j,,,,,,,,,,,,,,,,,,,,,,,,,0,0,0,0,0,10,10,22,,,,,,,,,,,,,,,,,,,,,,,,,,,,,,,,,,,,,,335.50111010001274,335.50111010001274,335.50111010001274,335.50111010001274,335.50111010001274,j,1,0.6900398000143468,,,,,,,,,,,,,,,,,,,,336.2069091000012,,,,230624_lkx,女,研究生及以上,21,001,2023-06-24_16h13.25.381,nalin_IRAP,2023.1.2,120.13094268969822,
"恭喜，你已达成80%正确率，可以继续实验

~请按空格键进入测试阶段~",失落,"(0.0, 0.3)",f,,,,,,,,,,,,,,,,,,,,,,,,,0,0,0,0,0,11,11,7,,,,,,,,,,,,,,,,,,,,,,,,,,,,,,,,,,,,,,336.71792220004136,336.71792220004136,336.71792220004136,336.71792220004136,336.71792220004136,j,0,1.6637363999616355,,,,,,,,,,,,,,,,,,,,338.3992247999995,,,,230624_lkx,女,研究生及以上,21,001,2023-06-24_16h13.25.381,nalin_IRAP,2023.1.2,120.13094268969822,
"恭喜，你已达成80%正确率，可以继续实验

~请按空格键进入测试阶段~",愁苦,"(0.0, -0.15)",j,,,,,,,,,,,,,,,,,,,,,,,,,0,0,0,0,0,12,12,23,,,,,,,,,,,,,,,,,,,,,,,,,,,,,,,,,,,,,,338.90820870001335,338.90820870001335,338.90820870001335,338.90820870001335,338.90820870001335,j,1,1.4792942000203766,,,,,,,,,,,,,,,,,,,,340.396638300037,340.9001844000304,,,230624_lkx,女,研究生及以上,21,001,2023-06-24_16h13.25.381,nalin_IRAP,2023.1.2,120.13094268969822,
"恭喜，你已达成80%正确率，可以继续实验

~请按空格键进入测试阶段~",伤心,"(0.0, -0.15)",j,,,,,,,,,,,,,,,,,,,,,,,,,0,0,0,0,0,13,13,18,,,,,,,,,,,,,,,,,,,,,,,,,,,,,,,,,,,,,,340.9001844000304,340.9001844000304,340.9001844000304,340.9001844000304,340.9001844000304,j,1,0.5004983000108041,,,,,,,,,,,,,,,,,,,,341.41503470001044,,,,230624_lkx,女,研究生及以上,21,001,2023-06-24_16h13.25.381,nalin_IRAP,2023.1.2,120.13094268969822,
"恭喜，你已达成80%正确率，可以继续实验

~请按空格键进入测试阶段~",忧郁,"(0.0, 0.3)",f,,,,,,,,,,,,,,,,,,,,,,,,,0,0,0,0,0,14,14,10,,,,,,,,,,,,,,,,,,,,,,,,,,,,,,,,,,,,,,341.92642850003904,341.92642850003904,341.92642850003904,341.92642850003904,341.92642850003904,f,1,1.045888799999375,,,,,,,,,,,,,,,,,,,,342.9807551000267,343.4852236000006,,,230624_lkx,女,研究生及以上,21,001,2023-06-24_16h13.25.381,nalin_IRAP,2023.1.2,120.13094268969822,
"恭喜，你已达成80%正确率，可以继续实验

~请按空格键进入测试阶段~",喜悦,"(0.0, 0.3)",j,,,,,,,,,,,,,,,,,,,,,,,,,0,0,0,0,0,15,15,4,,,,,,,,,,,,,,,,,,,,,,,,,,,,,,,,,,,,,,343.4852236000006,343.4852236000006,343.4852236000006,343.4852236000006,343.4852236000006,j,1,0.6621368000051007,,,,,,,,,,,,,,,,,,,,344.1557095000171,344.6597244000295,,,230624_lkx,女,研究生及以上,21,001,2023-06-24_16h13.25.381,nalin_IRAP,2023.1.2,120.13094268969822,
"恭喜，你已达成80%正确率，可以继续实验

~请按空格键进入测试阶段~",难过,"(0.0, -0.15)",j,,,,,,,,,,,,,,,,,,,,,,,,,0,0,0,0,0,16,16,20,,,,,,,,,,,,,,,,,,,,,,,,,,,,,,,,,,,,,,344.6597244000295,344.6597244000295,344.6597244000295,344.6597244000295,344.6597244000295,j,1,3.404782300000079,,,,,,,,,,,,,,,,,,,,348.0772060000454,,,,230624_lkx,女,研究生及以上,21,001,2023-06-24_16h13.25.381,nalin_IRAP,2023.1.2,120.13094268969822,
"恭喜，你已达成80%正确率，可以继续实验

~请按空格键进入测试阶段~",愉悦,"(0.0, 0.3)",j,,,,,,,,,,,,,,,,,,,,,,,,,0,0,0,0,0,17,17,2,,,,,,,,,,,,,,,,,,,,,,,,,,,,,,,,,,,,,,348.58434520004084,348.58434520004084,348.58434520004084,348.58434520004084,348.58434520004084,j,1,2.473660200019367,,,,,,,,,,,,,,,,,,,,351.07433010003297,,,,230624_lkx,女,研究生及以上,21,001,2023-06-24_16h13.25.381,nalin_IRAP,2023.1.2,120.13094268969822,
"恭喜，你已达成80%正确率，可以继续实验

~请按空格键进入测试阶段~",欣喜,"(0.0, -0.15)",f,,,,,,,,,,,,,,,,,,,,,,,,,0,0,0,0,0,18,18,15,,,,,,,,,,,,,,,,,,,,,,,,,,,,,,,,,,,,,,351.58403680002084,351.58403680002084,351.58403680002084,351.58403680002084,351.58403680002084,f,1,0.9182036999845877,,,,,,,,,,,,,,,,,,,,352.51655860000756,,,,230624_lkx,女,研究生及以上,21,001,2023-06-24_16h13.25.381,nalin_IRAP,2023.1.2,120.13094268969822,
"恭喜，你已达成80%正确率，可以继续实验

~请按空格键进入测试阶段~",愉快,"(0.0, 0.3)",j,,,,,,,,,,,,,,,,,,,,,,,,,0,0,0,0,0,19,19,5,,,,,,,,,,,,,,,,,,,,,,,,,,,,,,,,,,,,,,353.02596719999565,353.02596719999565,353.02596719999565,353.02596719999565,353.02596719999565,j,1,0.5868618999957107,,,,,,,,,,,,,,,,,,,,353.6237090000068,,,,230624_lkx,女,研究生及以上,21,001,2023-06-24_16h13.25.381,nalin_IRAP,2023.1.2,120.13094268969822,
"恭喜，你已达成80%正确率，可以继续实验

~请按空格键进入测试阶段~",欣喜,"(0.0, 0.3)",j,,,,,,,,,,,,,,,,,,,,,,,,,0,0,0,0,0,20,20,3,,,,,,,,,,,,,,,,,,,,,,,,,,,,,,,,,,,,,,354.13342090003425,354.13342090003425,354.13342090003425,354.13342090003425,354.13342090003425,j,1,0.5106158999842592,,,,,,,,,,,,,,,,,,,,354.6543427000288,355.15983710001456,,,230624_lkx,女,研究生及以上,21,001,2023-06-24_16h13.25.381,nalin_IRAP,2023.1.2,120.13094268969822,
"恭喜，你已达成80%正确率，可以继续实验

~请按空格键进入测试阶段~",愁苦,"(0.0, 0.3)",f,,,,,,,,,,,,,,,,,,,,,,,,,0,0,0,0,0,21,21,11,,,,,,,,,,,,,,,,,,,,,,,,,,,,,,,,,,,,,,355.15983710001456,355.15983710001456,355.15983710001456,355.15983710001456,355.15983710001456,f,1,0.6874455999932252,,,,,,,,,,,,,,,,,,,,355.857684000046,,,,230624_lkx,女,研究生及以上,21,001,2023-06-24_16h13.25.381,nalin_IRAP,2023.1.2,120.13094268969822,
"恭喜，你已达成80%正确率，可以继续实验

~请按空格键进入测试阶段~",悲伤,"(0.0, -0.15)",j,,,,,,,,,,,,,,,,,,,,,,,,,0,0,0,0,0,22,22,21,,,,,,,,,,,,,,,,,,,,,,,,,,,,,,,,,,,,,,356.3677510000416,356.3677510000416,356.3677510000416,356.3677510000416,356.3677510000416,j,1,1.3182685999781825,,,,,,,,,,,,,,,,,,,,357.6979191999999,,,,230624_lkx,女,研究生及以上,21,001,2023-06-24_16h13.25.381,nalin_IRAP,2023.1.2,120.13094268969822,
"恭喜，你已达成80%正确率，可以继续实验

~请按空格键进入测试阶段~",伤心,"(0.0, 0.3)",f,,,,,,,,,,,,,,,,,,,,,,,,,0,0,0,0,0,23,23,6,,,,,,,,,,,,,,,,,,,,,,,,,,,,,,,,,,,,,,358.2090305000311,358.2090305000311,358.2090305000311,358.2090305000311,358.2090305000311,f,1,1.622518600022886,,,,,,,,,,,,,,,,,,,,359.8428114000126,,,,230624_lkx,女,研究生及以上,21,001,2023-06-24_16h13.25.381,nalin_IRAP,2023.1.2,120.13094268969822,
"恭喜，你已达成80%正确率，可以继续实验

~请按空格键进入测试阶段~",伤心,"(0.0, -0.15)",j,,,,,,,,,,,,,,,,,,,,,,,,,0,0,0,0,1,0,24,18,,,,,,,,,,,,,,,,,,,,,,,,,,,,,,,,,,,,,,360.3479783000075,360.3479783000075,360.3479783000075,360.3479783000075,360.3479783000075,j,1,0.6605830999906175,,,,,,,,,,,,,,,,,,,,361.0194687000476,361.52504070004215,,,230624_lkx,女,研究生及以上,21,001,2023-06-24_16h13.25.381,nalin_IRAP,2023.1.2,120.13094268969822,
"恭喜，你已达成80%正确率，可以继续实验

~请按空格键进入测试阶段~",忧郁,"(0.0, -0.15)",j,,,,,,,,,,,,,,,,,,,,,,,,,0,0,0,0,1,1,25,22,,,,,,,,,,,,,,,,,,,,,,,,,,,,,,,,,,,,,,361.52504070004215,361.52504070004215,361.52504070004215,361.52504070004215,361.52504070004215,j,1,0.9681957999709994,,,,,,,,,,,,,,,,,,,,362.5091869000462,,,,230624_lkx,女,研究生及以上,21,001,2023-06-24_16h13.25.381,nalin_IRAP,2023.1.2,120.13094268969822,
"恭喜，你已达成80%正确率，可以继续实验

~请按空格键进入测试阶段~",伤心,"(0.0, 0.3)",f,,,,,,,,,,,,,,,,,,,,,,,,,0,0,0,0,1,2,26,6,,,,,,,,,,,,,,,,,,,,,,,,,,,,,,,,,,,,,,363.01760800002376,363.01760800002376,363.01760800002376,363.01760800002376,363.01760800002376,f,1,0.8224066999973729,,,,,,,,,,,,,,,,,,,,363.8555542000104,364.35975780000445,,,230624_lkx,女,研究生及以上,21,001,2023-06-24_16h13.25.381,nalin_IRAP,2023.1.2,120.13094268969822,
"恭喜，你已达成80%正确率，可以继续实验

~请按空格键进入测试阶段~",忧郁,"(0.0, 0.3)",f,,,,,,,,,,,,,,,,,,,,,,,,,0,0,0,0,1,3,27,10,,,,,,,,,,,,,,,,,,,,,,,,,,,,,,,,,,,,,,364.35975780000445,364.35975780000445,364.35975780000445,364.35975780000445,364.35975780000445,f,1,0.6738855999428779,,,,,,,,,,,,,,,,,,,,365.05005620000884,,,,230624_lkx,女,研究生及以上,21,001,2023-06-24_16h13.25.381,nalin_IRAP,2023.1.2,120.13094268969822,
"恭喜，你已达成80%正确率，可以继续实验

~请按空格键进入测试阶段~",悲伤,"(0.0, -0.15)",j,,,,,,,,,,,,,,,,,,,,,,,,,0,0,0,0,1,4,28,21,,,,,,,,,,,,,,,,,,,,,,,,,,,,,,,,,,,,,,365.5592595000053,365.5592595000053,365.5592595000053,365.5592595000053,365.5592595000053,j,1,0.9828841999988072,,,,,,,,,,,,,,,,,,,,366.55478360003326,367.0612713000155,,,230624_lkx,女,研究生及以上,21,001,2023-06-24_16h13.25.381,nalin_IRAP,2023.1.2,120.13094268969822,
"恭喜，你已达成80%正确率，可以继续实验

~请按空格键进入测试阶段~",愉悦,"(0.0, 0.3)",j,,,,,,,,,,,,,,,,,,,,,,,,,0,0,0,0,1,5,29,2,,,,,,,,,,,,,,,,,,,,,,,,,,,,,,,,,,,,,,367.0612713000155,367.0612713000155,367.0612713000155,367.0612713000155,367.0612713000155,f,0,3.0248666999978013,,,,,,,,,,,,,,,,,,,,370.0964584000176,370.59875130001456,,,230624_lkx,女,研究生及以上,21,001,2023-06-24_16h13.25.381,nalin_IRAP,2023.1.2,120.13094268969822,
"恭喜，你已达成80%正确率，可以继续实验

~请按空格键进入测试阶段~",愉悦,"(0.0, -0.15)",f,,,,,,,,,,,,,,,,,,,,,,,,,0,0,0,0,1,6,30,14,,,,,,,,,,,,,,,,,,,,,,,,,,,,,,,,,,,,,,370.59875130001456,370.59875130001456,370.59875130001456,370.59875130001456,370.59875130001456,f,1,1.1850488999625668,,,,,,,,,,,,,,,,,,,,371.7930000000051,,,,230624_lkx,女,研究生及以上,21,001,2023-06-24_16h13.25.381,nalin_IRAP,2023.1.2,120.13094268969822,
"恭喜，你已达成80%正确率，可以继续实验

~请按空格键进入测试阶段~",欣喜,"(0.0, 0.3)",j,,,,,,,,,,,,,,,,,,,,,,,,,0,0,0,0,1,7,31,3,,,,,,,,,,,,,,,,,,,,,,,,,,,,,,,,,,,,,,372.3002274000319,372.3002274000319,372.3002274000319,372.3002274000319,372.3002274000319,j,1,1.929473500000313,,,,,,,,,,,,,,,,,,,,374.24195990001317,,,,230624_lkx,女,研究生及以上,21,001,2023-06-24_16h13.25.381,nalin_IRAP,2023.1.2,120.13094268969822,
"恭喜，你已达成80%正确率，可以继续实验

~请按空格键进入测试阶段~",喜悦,"(0.0, -0.15)",f,,,,,,,,,,,,,,,,,,,,,,,,,0,0,0,0,1,8,32,16,,,,,,,,,,,,,,,,,,,,,,,,,,,,,,,,,,,,,,374.75125620001927,374.75125620001927,374.75125620001927,374.75125620001927,374.75125620001927,f,1,2.4339545000111684,,,,,,,,,,,,,,,,,,,,377.1975509999902,377.70165220001945,,,230624_lkx,女,研究生及以上,21,001,2023-06-24_16h13.25.381,nalin_IRAP,2023.1.2,120.13094268969822,
"恭喜，你已达成80%正确率，可以继续实验

~请按空格键进入测试阶段~",高兴,"(0.0, 0.3)",j,,,,,,,,,,,,,,,,,,,,,,,,,0,0,0,0,1,9,33,0,,,,,,,,,,,,,,,,,,,,,,,,,,,,,,,,,,,,,,377.70165220001945,377.70165220001945,377.70165220001945,377.70165220001945,377.70165220001945,j,1,2.2247180999838747,,,,,,,,,,,,,,,,,,,,379.9415701000253,,,,230624_lkx,女,研究生及以上,21,001,2023-06-24_16h13.25.381,nalin_IRAP,2023.1.2,120.13094268969822,
"恭喜，你已达成80%正确率，可以继续实验

~请按空格键进入测试阶段~",愁苦,"(0.0, 0.3)",f,,,,,,,,,,,,,,,,,,,,,,,,,0,0,0,0,1,10,34,11,,,,,,,,,,,,,,,,,,,,,,,,,,,,,,,,,,,,,,380.45015049999347,380.45015049999347,380.45015049999347,380.45015049999347,380.45015049999347,f,1,3.2740471999859437,,,,,,,,,,,,,,,,,,,,383.74008760001743,,,,230624_lkx,女,研究生及以上,21,001,2023-06-24_16h13.25.381,nalin_IRAP,2023.1.2,120.13094268969822,
"恭喜，你已达成80%正确率，可以继续实验

~请按空格键进入测试阶段~",快乐,"(0.0, -0.15)",f,,,,,,,,,,,,,,,,,,,,,,,,,0,0,0,0,1,11,35,13,,,,,,,,,,,,,,,,,,,,,,,,,,,,,,,,,,,,,,384.2527829000028,384.2527829000028,384.2527829000028,384.2527829000028,384.2527829000028,f,1,2.429406100010965,,,,,,,,,,,,,,,,,,,,386.69077800004743,,,,230624_lkx,女,研究生及以上,21,001,2023-06-24_16h13.25.381,nalin_IRAP,2023.1.2,120.13094268969822,
"恭喜，你已达成80%正确率，可以继续实验

~请按空格键进入测试阶段~",愉快,"(0.0, 0.3)",j,,,,,,,,,,,,,,,,,,,,,,,,,0,0,0,0,1,12,36,5,,,,,,,,,,,,,,,,,,,,,,,,,,,,,,,,,,,,,,387.20164680003654,387.20164680003654,387.20164680003654,387.20164680003654,387.20164680003654,j,1,1.9473693000036292,,,,,,,,,,,,,,,,,,,,389.16033230000176,,,,230624_lkx,女,研究生及以上,21,001,2023-06-24_16h13.25.381,nalin_IRAP,2023.1.2,120.13094268969822,
"恭喜，你已达成80%正确率，可以继续实验

~请按空格键进入测试阶段~",悲伤,"(0.0, 0.3)",f,,,,,,,,,,,,,,,,,,,,,,,,,0,0,0,0,1,13,37,9,,,,,,,,,,,,,,,,,,,,,,,,,,,,,,,,,,,,,,389.6683059000061,389.6683059000061,389.6683059000061,389.6683059000061,389.6683059000061,f,1,4.597746699990239,,,,,,,,,,,,,,,,,,,,394.28217590000713,,,,230624_lkx,女,研究生及以上,21,001,2023-06-24_16h13.25.381,nalin_IRAP,2023.1.2,120.13094268969822,
"恭喜，你已达成80%正确率，可以继续实验

~请按空格键进入测试阶段~",高兴,"(0.0, -0.15)",f,,,,,,,,,,,,,,,,,,,,,,,,,0,0,0,0,1,14,38,12,,,,,,,,,,,,,,,,,,,,,,,,,,,,,,,,,,,,,,394.79203800001414,394.79203800001414,394.79203800001414,394.79203800001414,394.79203800001414,f,1,5.8455400000093505,,,,,,,,,,,,,,,,,,,,400.6494869000162,,,,230624_lkx,女,研究生及以上,21,001,2023-06-24_16h13.25.381,nalin_IRAP,2023.1.2,120.13094268969822,
"恭喜，你已达成80%正确率，可以继续实验

~请按空格键进入测试阶段~",愉快,"(0.0, -0.15)",f,,,,,,,,,,,,,,,,,,,,,,,,,0,0,0,0,1,15,39,17,,,,,,,,,,,,,,,,,,,,,,,,,,,,,,,,,,,,,,401.1588175999932,401.1588175999932,401.1588175999932,401.1588175999932,401.1588175999932,f,1,0.6295614999835379,,,,,,,,,,,,,,,,,,,,401.79697220004164,402.3017741999938,,,230624_lkx,女,研究生及以上,21,001,2023-06-24_16h13.25.381,nalin_IRAP,2023.1.2,120.13094268969822,
"恭喜，你已达成80%正确率，可以继续实验

~请按空格键进入测试阶段~",失落,"(0.0, 0.3)",f,,,,,,,,,,,,,,,,,,,,,,,,,0,0,0,0,1,16,40,7,,,,,,,,,,,,,,,,,,,,,,,,,,,,,,,,,,,,,,402.3017741999938,402.3017741999938,402.3017741999938,402.3017741999938,402.3017741999938,f,1,2.458757799991872,,,,,,,,,,,,,,,,,,,,404.7684187000268,,,,230624_lkx,女,研究生及以上,21,001,2023-06-24_16h13.25.381,nalin_IRAP,2023.1.2,120.13094268969822,
"恭喜，你已达成80%正确率，可以继续实验

~请按空格键进入测试阶段~",难过,"(0.0, 0.3)",f,,,,,,,,,,,,,,,,,,,,,,,,,0,0,0,0,1,17,41,8,,,,,,,,,,,,,,,,,,,,,,,,,,,,,,,,,,,,,,405.2763899000129,405.2763899000129,405.2763899000129,405.2763899000129,405.2763899000129,f,1,0.5307699000113644,,,,,,,,,,,,,,,,,,,,405.81891160004307,,,,230624_lkx,女,研究生及以上,21,001,2023-06-24_16h13.25.381,nalin_IRAP,2023.1.2,120.13094268969822,
"恭喜，你已达成80%正确率，可以继续实验

~请按空格键进入测试阶段~",喜悦,"(0.0, 0.3)",j,,,,,,,,,,,,,,,,,,,,,,,,,0,0,0,0,1,18,42,4,,,,,,,,,,,,,,,,,,,,,,,,,,,,,,,,,,,,,,406.326269400015,406.326269400015,406.326269400015,406.326269400015,406.326269400015,j,1,0.5609606999787502,,,,,,,,,,,,,,,,,,,,406.9012530000182,,,,230624_lkx,女,研究生及以上,21,001,2023-06-24_16h13.25.381,nalin_IRAP,2023.1.2,120.13094268969822,
"恭喜，你已达成80%正确率，可以继续实验

~请按空格键进入测试阶段~",愁苦,"(0.0, -0.15)",j,,,,,,,,,,,,,,,,,,,,,,,,,0,0,0,0,1,19,43,23,,,,,,,,,,,,,,,,,,,,,,,,,,,,,,,,,,,,,,407.4095443999977,407.4095443999977,407.4095443999977,407.4095443999977,407.4095443999977,j,1,0.8925197000498883,,,,,,,,,,,,,,,,,,,,408.3102058999939,,,,230624_lkx,女,研究生及以上,21,001,2023-06-24_16h13.25.381,nalin_IRAP,2023.1.2,120.13094268969822,
"恭喜，你已达成80%正确率，可以继续实验

~请按空格键进入测试阶段~",欣喜,"(0.0, -0.15)",f,,,,,,,,,,,,,,,,,,,,,,,,,0,0,0,0,1,20,44,15,,,,,,,,,,,,,,,,,,,,,,,,,,,,,,,,,,,,,,408.81547780003166,408.81547780003166,408.81547780003166,408.81547780003166,408.81547780003166,f,1,0.7054764999775216,,,,,,,,,,,,,,,,,,,,409.5298041999922,410.03230210003676,,,230624_lkx,女,研究生及以上,21,001,2023-06-24_16h13.25.381,nalin_IRAP,2023.1.2,120.13094268969822,
"恭喜，你已达成80%正确率，可以继续实验

~请按空格键进入测试阶段~",难过,"(0.0, -0.15)",j,,,,,,,,,,,,,,,,,,,,,,,,,0,0,0,0,1,21,45,20,,,,,,,,,,,,,,,,,,,,,,,,,,,,,,,,,,,,,,410.03230210003676,410.03230210003676,410.03230210003676,410.03230210003676,410.03230210003676,j,1,0.8988450999604538,,,,,,,,,,,,,,,,,,,,410.9389802000369,411.4438441999955,,,230624_lkx,女,研究生及以上,21,001,2023-06-24_16h13.25.381,nalin_IRAP,2023.1.2,120.13094268969822,
"恭喜，你已达成80%正确率，可以继续实验

~请按空格键进入测试阶段~",快乐,"(0.0, 0.3)",j,,,,,,,,,,,,,,,,,,,,,,,,,0,0,0,0,1,22,46,1,,,,,,,,,,,,,,,,,,,,,,,,,,,,,,,,,,,,,,411.4438441999955,411.4438441999955,411.4438441999955,411.4438441999955,411.4438441999955,j,1,3.4923895999672823,,,,,,,,,,,,,,,,,,,,414.94495380000444,415.45098930003587,,,230624_lkx,女,研究生及以上,21,001,2023-06-24_16h13.25.381,nalin_IRAP,2023.1.2,120.13094268969822,
"恭喜，你已达成80%正确率，可以继续实验

~请按空格键进入测试阶段~",失落,"(0.0, -0.15)",j,,,,,,,,,,,,,,,,,,,,,,,,,0,0,0,0,1,23,47,19,,,,,,,,,,,,,,,,,,,,,,,,,,,,,,,,,,,,,,415.45098930003587,415.45098930003587,415.45098930003587,415.45098930003587,415.45098930003587,j,1,2.737814199994318,,,,,,,,,,,,,,,,,,,,418.1952365000034,418.70023650000803,,,230624_lkx,女,研究生及以上,21,001,2023-06-24_16h13.25.381,nalin_IRAP,2023.1.2,120.13094268969822,
"恭喜，你已达成80%正确率，可以继续实验

~请按空格键进入测试阶段~",高兴,"(0.0, 0.3)",j,,,,,,,,,,,,,,,,,,,,,,,,,0,0,0,0,2,0,48,0,,,,,,,,,,,,,,,,,,,,,,,,,,,,,,,,,,,,,,418.70023650000803,418.70023650000803,418.70023650000803,418.70023650000803,418.70023650000803,j,1,4.522914599976502,,,,,,,,,,,,,,,,,,,,423.23829639999894,423.74407190002967,,,230624_lkx,女,研究生及以上,21,001,2023-06-24_16h13.25.381,nalin_IRAP,2023.1.2,120.13094268969822,
"恭喜，你已达成80%正确率，可以继续实验

~请按空格键进入测试阶段~",喜悦,"(0.0, -0.15)",f,,,,,,,,,,,,,,,,,,,,,,,,,0,0,0,0,2,1,49,16,,,,,,,,,,,,,,,,,,,,,,,,,,,,,,,,,,,,,,423.74407190002967,423.74407190002967,423.74407190002967,423.74407190002967,423.74407190002967,f,1,0.879590799973812,,,,,,,,,,,,,,,,,,,,424.6331144000287,,,,230624_lkx,女,研究生及以上,21,001,2023-06-24_16h13.25.381,nalin_IRAP,2023.1.2,120.13094268969822,
"恭喜，你已达成80%正确率，可以继续实验

~请按空格键进入测试阶段~",悲伤,"(0.0, 0.3)",f,,,,,,,,,,,,,,,,,,,,,,,,,0,0,0,0,2,2,50,9,,,,,,,,,,,,,,,,,,,,,,,,,,,,,,,,,,,,,,425.1436959000421,425.1436959000421,425.1436959000421,425.1436959000421,425.1436959000421,f,1,0.985462800017558,,,,,,,,,,,,,,,,,,,,426.14033540000673,,,,230624_lkx,女,研究生及以上,21,001,2023-06-24_16h13.25.381,nalin_IRAP,2023.1.2,120.13094268969822,
"恭喜，你已达成80%正确率，可以继续实验

~请按空格键进入测试阶段~",欣喜,"(0.0, 0.3)",j,,,,,,,,,,,,,,,,,,,,,,,,,0,0,0,0,2,3,51,3,,,,,,,,,,,,,,,,,,,,,,,,,,,,,,,,,,,,,,426.6511842000182,426.6511842000182,426.6511842000182,426.6511842000182,426.6511842000182,j,1,0.689508100040257,,,,,,,,,,,,,,,,,,,,427.35141570004635,,,,230624_lkx,女,研究生及以上,21,001,2023-06-24_16h13.25.381,nalin_IRAP,2023.1.2,120.13094268969822,
"恭喜，你已达成80%正确率，可以继续实验

~请按空格键进入测试阶段~",快乐,"(0.0, 0.3)",j,,,,,,,,,,,,,,,,,,,,,,,,,0,0,0,0,2,4,52,1,,,,,,,,,,,,,,,,,,,,,,,,,,,,,,,,,,,,,,427.8602831000462,427.8602831000462,427.8602831000462,427.8602831000462,427.8602831000462,j,1,0.5870533999986947,,,,,,,,,,,,,,,,,,,,428.45803010003874,,,,230624_lkx,女,研究生及以上,21,001,2023-06-24_16h13.25.381,nalin_IRAP,2023.1.2,120.13094268969822,
"恭喜，你已达成80%正确率，可以继续实验

~请按空格键进入测试阶段~",悲伤,"(0.0, -0.15)",j,,,,,,,,,,,,,,,,,,,,,,,,,0,0,0,0,2,5,53,21,,,,,,,,,,,,,,,,,,,,,,,,,,,,,,,,,,,,,,428.96802650002064,428.96802650002064,428.96802650002064,428.96802650002064,428.96802650002064,j,1,2.198737300001085,,,,,,,,,,,,,,,,,,,,431.1835958000156,,,,230624_lkx,女,研究生及以上,21,001,2023-06-24_16h13.25.381,nalin_IRAP,2023.1.2,120.13094268969822,
"恭喜，你已达成80%正确率，可以继续实验

~请按空格键进入测试阶段~",难过,"(0.0, 0.3)",f,,,,,,,,,,,,,,,,,,,,,,,,,0,0,0,0,2,6,54,8,,,,,,,,,,,,,,,,,,,,,,,,,,,,,,,,,,,,,,431.6926561000291,431.6926561000291,431.6926561000291,431.6926561000291,431.6926561000291,f,1,0.6921929000527598,,,,,,,,,,,,,,,,,,,,432.3969408000121,432.9008592000464,,,230624_lkx,女,研究生及以上,21,001,2023-06-24_16h13.25.381,nalin_IRAP,2023.1.2,120.13094268969822,
"恭喜，你已达成80%正确率，可以继续实验

~请按空格键进入测试阶段~",伤心,"(0.0, 0.3)",f,,,,,,,,,,,,,,,,,,,,,,,,,0,0,0,0,2,7,55,6,,,,,,,,,,,,,,,,,,,,,,,,,,,,,,,,,,,,,,432.9008592000464,432.9008592000464,432.9008592000464,432.9008592000464,432.9008592000464,f,1,0.4823337999987416,,,,,,,,,,,,,,,,,,,,433.39035190001596,,,,230624_lkx,女,研究生及以上,21,001,2023-06-24_16h13.25.381,nalin_IRAP,2023.1.2,120.13094268969822,
"恭喜，你已达成80%正确率，可以继续实验

~请按空格键进入测试阶段~",愁苦,"(0.0, 0.3)",f,,,,,,,,,,,,,,,,,,,,,,,,,0,0,0,0,2,8,56,11,,,,,,,,,,,,,,,,,,,,,,,,,,,,,,,,,,,,,,433.8998654000461,433.8998654000461,433.8998654000461,433.8998654000461,433.8998654000461,f,1,0.3737183000193909,,,,,,,,,,,,,,,,,,,,434.2838402999914,,,,230624_lkx,女,研究生及以上,21,001,2023-06-24_16h13.25.381,nalin_IRAP,2023.1.2,120.13094268969822,
"恭喜，你已达成80%正确率，可以继续实验

~请按空格键进入测试阶段~",欣喜,"(0.0, -0.15)",f,,,,,,,,,,,,,,,,,,,,,,,,,0,0,0,0,2,9,57,15,,,,,,,,,,,,,,,,,,,,,,,,,,,,,,,,,,,,,,434.79272900003707,434.79272900003707,434.79272900003707,434.79272900003707,434.79272900003707,f,1,0.875803500006441,,,,,,,,,,,,,,,,,,,,435.68092900002375,,,,230624_lkx,女,研究生及以上,21,001,2023-06-24_16h13.25.381,nalin_IRAP,2023.1.2,120.13094268969822,
"恭喜，你已达成80%正确率，可以继续实验

~请按空格键进入测试阶段~",伤心,"(0.0, -0.15)",j,,,,,,,,,,,,,,,,,,,,,,,,,0,0,0,0,2,10,58,18,,,,,,,,,,,,,,,,,,,,,,,,,,,,,,,,,,,,,,436.1935123000294,436.1935123000294,436.1935123000294,436.1935123000294,436.1935123000294,j,1,0.6374746999936178,,,,,,,,,,,,,,,,,,,,436.8432183000259,,,,230624_lkx,女,研究生及以上,21,001,2023-06-24_16h13.25.381,nalin_IRAP,2023.1.2,120.13094268969822,
"恭喜，你已达成80%正确率，可以继续实验

~请按空格键进入测试阶段~",喜悦,"(0.0, 0.3)",j,,,,,,,,,,,,,,,,,,,,,,,,,0,0,0,0,2,11,59,4,,,,,,,,,,,,,,,,,,,,,,,,,,,,,,,,,,,,,,437.35211680002976,437.35211680002976,437.35211680002976,437.35211680002976,437.35211680002976,f,0,0.6370942000066862,,,,,,,,,,,,,,,,,,,,437.9972868000041,438.5012294999906,,,230624_lkx,女,研究生及以上,21,001,2023-06-24_16h13.25.381,nalin_IRAP,2023.1.2,120.13094268969822,
"恭喜，你已达成80%正确率，可以继续实验

~请按空格键进入测试阶段~",愁苦,"(0.0, -0.15)",j,,,,,,,,,,,,,,,,,,,,,,,,,0,0,0,0,2,12,60,23,,,,,,,,,,,,,,,,,,,,,,,,,,,,,,,,,,,,,,438.5012294999906,438.5012294999906,438.5012294999906,438.5012294999906,438.5012294999906,j,1,1.1978722999920137,,,,,,,,,,,,,,,,,,,,439.7061961000436,,,,230624_lkx,女,研究生及以上,21,001,2023-06-24_16h13.25.381,nalin_IRAP,2023.1.2,120.13094268969822,
"恭喜，你已达成80%正确率，可以继续实验

~请按空格键进入测试阶段~",愉悦,"(0.0, -0.15)",f,,,,,,,,,,,,,,,,,,,,,,,,,0,0,0,0,2,13,61,14,,,,,,,,,,,,,,,,,,,,,,,,,,,,,,,,,,,,,,440.2175314000342,440.2175314000342,440.2175314000342,440.2175314000342,440.2175314000342,f,1,0.8050772999995388,,,,,,,,,,,,,,,,,,,,441.0357762000058,,,,230624_lkx,女,研究生及以上,21,001,2023-06-24_16h13.25.381,nalin_IRAP,2023.1.2,120.13094268969822,
"恭喜，你已达成80%正确率，可以继续实验

~请按空格键进入测试阶段~",愉悦,"(0.0, 0.3)",j,,,,,,,,,,,,,,,,,,,,,,,,,0,0,0,0,2,14,62,2,,,,,,,,,,,,,,,,,,,,,,,,,,,,,,,,,,,,,,441.540533100022,441.540533100022,441.540533100022,441.540533100022,441.540533100022,j,1,0.9993876000517048,,,,,,,,,,,,,,,,,,,,442.55310300004203,,,,230624_lkx,女,研究生及以上,21,001,2023-06-24_16h13.25.381,nalin_IRAP,2023.1.2,120.13094268969822,
"恭喜，你已达成80%正确率，可以继续实验

~请按空格键进入测试阶段~",忧郁,"(0.0, -0.15)",j,,,,,,,,,,,,,,,,,,,,,,,,,0,0,0,0,2,15,63,22,,,,,,,,,,,,,,,,,,,,,,,,,,,,,,,,,,,,,,443.05923060001805,443.05923060001805,443.05923060001805,443.05923060001805,443.05923060001805,j,1,1.1669900999986567,,,,,,,,,,,,,,,,,,,,444.24078690004535,,,,230624_lkx,女,研究生及以上,21,001,2023-06-24_16h13.25.381,nalin_IRAP,2023.1.2,120.13094268969822,
"恭喜，你已达成80%正确率，可以继续实验

~请按空格键进入测试阶段~",忧郁,"(0.0, 0.3)",f,,,,,,,,,,,,,,,,,,,,,,,,,0,0,0,0,2,16,64,10,,,,,,,,,,,,,,,,,,,,,,,,,,,,,,,,,,,,,,444.7478514999966,444.7478514999966,444.7478514999966,444.7478514999966,444.7478514999966,f,1,0.8573371000238694,,,,,,,,,,,,,,,,,,,,445.6154203999904,,,,230624_lkx,女,研究生及以上,21,001,2023-06-24_16h13.25.381,nalin_IRAP,2023.1.2,120.13094268969822,
"恭喜，你已达成80%正确率，可以继续实验

~请按空格键进入测试阶段~",快乐,"(0.0, -0.15)",f,,,,,,,,,,,,,,,,,,,,,,,,,0,0,0,0,2,17,65,13,,,,,,,,,,,,,,,,,,,,,,,,,,,,,,,,,,,,,,446.12575720000314,446.12575720000314,446.12575720000314,446.12575720000314,446.12575720000314,f,1,1.0074209999875166,,,,,,,,,,,,,,,,,,,,447.14088620000985,,,,230624_lkx,女,研究生及以上,21,001,2023-06-24_16h13.25.381,nalin_IRAP,2023.1.2,120.13094268969822,
"恭喜，你已达成80%正确率，可以继续实验

~请按空格键进入测试阶段~",难过,"(0.0, -0.15)",j,,,,,,,,,,,,,,,,,,,,,,,,,0,0,0,0,2,18,66,20,,,,,,,,,,,,,,,,,,,,,,,,,,,,,,,,,,,,,,447.6491237000446,447.6491237000446,447.6491237000446,447.6491237000446,447.6491237000446,j,1,0.6723943999968469,,,,,,,,,,,,,,,,,,,,448.3343803000171,,,,230624_lkx,女,研究生及以上,21,001,2023-06-24_16h13.25.381,nalin_IRAP,2023.1.2,120.13094268969822,
"恭喜，你已达成80%正确率，可以继续实验

~请按空格键进入测试阶段~",愉快,"(0.0, -0.15)",f,,,,,,,,,,,,,,,,,,,,,,,,,0,0,0,0,2,19,67,17,,,,,,,,,,,,,,,,,,,,,,,,,,,,,,,,,,,,,,448.84239540004637,448.84239540004637,448.84239540004637,448.84239540004637,448.84239540004637,f,1,1.144848199968692,,,,,,,,,,,,,,,,,,,,449.994717900001,450.50117240002146,,,230624_lkx,女,研究生及以上,21,001,2023-06-24_16h13.25.381,nalin_IRAP,2023.1.2,120.13094268969822,
"恭喜，你已达成80%正确率，可以继续实验

~请按空格键进入测试阶段~",高兴,"(0.0, -0.15)",f,,,,,,,,,,,,,,,,,,,,,,,,,0,0,0,0,2,20,68,12,,,,,,,,,,,,,,,,,,,,,,,,,,,,,,,,,,,,,,450.50117240002146,450.50117240002146,450.50117240002146,450.50117240002146,450.50117240002146,f,1,0.455734700022731,,,,,,,,,,,,,,,,,,,,450.97130840003956,451.47729040001286,,,230624_lkx,女,研究生及以上,21,001,2023-06-24_16h13.25.381,nalin_IRAP,2023.1.2,120.13094268969822,
"恭喜，你已达成80%正确率，可以继续实验

~请按空格键进入测试阶段~",愉快,"(0.0, 0.3)",j,,,,,,,,,,,,,,,,,,,,,,,,,0,0,0,0,2,21,69,5,,,,,,,,,,,,,,,,,,,,,,,,,,,,,,,,,,,,,,451.47729040001286,451.47729040001286,451.47729040001286,451.47729040001286,451.47729040001286,j,1,0.9200232000439428,,,,,,,,,,,,,,,,,,,,452.4077009000466,,,,230624_lkx,女,研究生及以上,21,001,2023-06-24_16h13.25.381,nalin_IRAP,2023.1.2,120.13094268969822,
"恭喜，你已达成80%正确率，可以继续实验

~请按空格键进入测试阶段~",失落,"(0.0, 0.3)",f,,,,,,,,,,,,,,,,,,,,,,,,,0,0,0,0,2,22,70,7,,,,,,,,,,,,,,,,,,,,,,,,,,,,,,,,,,,,,,452.9175695000449,452.9175695000449,452.9175695000449,452.9175695000449,452.9175695000449,f,1,0.5976061000255868,,,,,,,,,,,,,,,,,,,,453.5294300999958,454.031960399996,,,230624_lkx,女,研究生及以上,21,001,2023-06-24_16h13.25.381,nalin_IRAP,2023.1.2,120.13094268969822,
"恭喜，你已达成80%正确率，可以继续实验

~请按空格键进入测试阶段~",失落,"(0.0, -0.15)",j,,,,,,,,,,,,,,,,,,,,,,,,,0,0,0,0,2,23,71,19,,,,,,,,,,,,,,,,,,,,,,,,,,,,,,,,,,,,,,454.031960399996,454.031960399996,454.031960399996,454.031960399996,454.031960399996,j,1,0.6768196999910288,,,,,,,,,,,,,,,,,,,,454.71749060001457,,,,230624_lkx,女,研究生及以上,21,001,2023-06-24_16h13.25.381,nalin_IRAP,2023.1.2,120.13094268969822,
"恭喜，你已达成80%正确率，可以继续实验

~请按空格键进入测试阶段~",悲伤,"(0.0, -0.15)",j,,,,,,,,,,,,,,,,,,,,,,,,,0,0,0,0,3,0,72,21,,,,,,,,,,,,,,,,,,,,,,,,,,,,,,,,,,,,,,455.2256578000379,455.2256578000379,455.2256578000379,455.2256578000379,455.2256578000379,j,1,0.6336534000001848,,,,,,,,,,,,,,,,,,,,455.8670092000393,,,,230624_lkx,女,研究生及以上,21,001,2023-06-24_16h13.25.381,nalin_IRAP,2023.1.2,120.13094268969822,
"恭喜，你已达成80%正确率，可以继续实验

~请按空格键进入测试阶段~",喜悦,"(0.0, 0.3)",j,,,,,,,,,,,,,,,,,,,,,,,,,0,0,0,0,3,1,73,4,,,,,,,,,,,,,,,,,,,,,,,,,,,,,,,,,,,,,,456.37506250001024,456.37506250001024,456.37506250001024,456.37506250001024,456.37506250001024,j,1,0.9693550000083633,,,,,,,,,,,,,,,,,,,,457.35900590004167,,,,230624_lkx,女,研究生及以上,21,001,2023-06-24_16h13.25.381,nalin_IRAP,2023.1.2,120.13094268969822,
"恭喜，你已达成80%正确率，可以继续实验

~请按空格键进入测试阶段~",失落,"(0.0, 0.3)",f,,,,,,,,,,,,,,,,,,,,,,,,,0,0,0,0,3,2,74,7,,,,,,,,,,,,,,,,,,,,,,,,,,,,,,,,,,,,,,457.86811340000713,457.86811340000713,457.86811340000713,457.86811340000713,457.86811340000713,f,1,0.7901879000128247,,,,,,,,,,,,,,,,,,,,458.66881520004245,,,,230624_lkx,女,研究生及以上,21,001,2023-06-24_16h13.25.381,nalin_IRAP,2023.1.2,120.13094268969822,
"恭喜，你已达成80%正确率，可以继续实验

~请按空格键进入测试阶段~",愁苦,"(0.0, 0.3)",f,,,,,,,,,,,,,,,,,,,,,,,,,0,0,0,0,3,3,75,11,,,,,,,,,,,,,,,,,,,,,,,,,,,,,,,,,,,,,,459.1754092000192,459.1754092000192,459.1754092000192,459.1754092000192,459.1754092000192,f,1,0.5481267999857664,,,,,,,,,,,,,,,,,,,,459.73346240003593,,,,230624_lkx,女,研究生及以上,21,001,2023-06-24_16h13.25.381,nalin_IRAP,2023.1.2,120.13094268969822,
"恭喜，你已达成80%正确率，可以继续实验

~请按空格键进入测试阶段~",高兴,"(0.0, -0.15)",f,,,,,,,,,,,,,,,,,,,,,,,,,0,0,0,0,3,4,76,12,,,,,,,,,,,,,,,,,,,,,,,,,,,,,,,,,,,,,,460.2422817000188,460.2422817000188,460.2422817000188,460.2422817000188,460.2422817000188,f,1,1.002551100042183,,,,,,,,,,,,,,,,,,,,461.2592153000296,,,,230624_lkx,女,研究生及以上,21,001,2023-06-24_16h13.25.381,nalin_IRAP,2023.1.2,120.13094268969822,
"恭喜，你已达成80%正确率，可以继续实验

~请按空格键进入测试阶段~",失落,"(0.0, -0.15)",j,,,,,,,,,,,,,,,,,,,,,,,,,0,0,0,0,3,5,77,19,,,,,,,,,,,,,,,,,,,,,,,,,,,,,,,,,,,,,,461.76692369999364,461.76692369999364,461.76692369999364,461.76692369999364,461.76692369999364,j,1,0.6760876000043936,,,,,,,,,,,,,,,,,,,,462.4516661000089,,,,230624_lkx,女,研究生及以上,21,001,2023-06-24_16h13.25.381,nalin_IRAP,2023.1.2,120.13094268969822,
"恭喜，你已达成80%正确率，可以继续实验

~请按空格键进入测试阶段~",难过,"(0.0, -0.15)",j,,,,,,,,,,,,,,,,,,,,,,,,,0,0,0,0,3,6,78,20,,,,,,,,,,,,,,,,,,,,,,,,,,,,,,,,,,,,,,462.9576142000151,462.9576142000151,462.9576142000151,462.9576142000151,462.9576142000151,j,1,0.596103599993512,,,,,,,,,,,,,,,,,,,,463.56291440001223,464.06916569999885,,,230624_lkx,女,研究生及以上,21,001,2023-06-24_16h13.25.381,nalin_IRAP,2023.1.2,120.13094268969822,
"恭喜，你已达成80%正确率，可以继续实验

~请按空格键进入测试阶段~",悲伤,"(0.0, 0.3)",f,,,,,,,,,,,,,,,,,,,,,,,,,0,0,0,0,3,7,79,9,,,,,,,,,,,,,,,,,,,,,,,,,,,,,,,,,,,,,,464.06916569999885,464.06916569999885,464.06916569999885,464.06916569999885,464.06916569999885,f,1,1.4371051999623887,,,,,,,,,,,,,,,,,,,,465.51404430001276,,,,230624_lkx,女,研究生及以上,21,001,2023-06-24_16h13.25.381,nalin_IRAP,2023.1.2,120.13094268969822,
"恭喜，你已达成80%正确率，可以继续实验

~请按空格键进入测试阶段~",愉快,"(0.0, 0.3)",j,,,,,,,,,,,,,,,,,,,,,,,,,0,0,0,0,3,8,80,5,,,,,,,,,,,,,,,,,,,,,,,,,,,,,,,,,,,,,,466.0256638000137,466.0256638000137,466.0256638000137,466.0256638000137,466.0256638000137,j,1,1.1797080999822356,,,,,,,,,,,,,,,,,,,,467.21419289999176,,,,230624_lkx,女,研究生及以上,21,001,2023-06-24_16h13.25.381,nalin_IRAP,2023.1.2,120.13094268969822,
"恭喜，你已达成80%正确率，可以继续实验

~请按空格键进入测试阶段~",喜悦,"(0.0, -0.15)",f,,,,,,,,,,,,,,,,,,,,,,,,,0,0,0,0,3,9,81,16,,,,,,,,,,,,,,,,,,,,,,,,,,,,,,,,,,,,,,467.72578440001234,467.72578440001234,467.72578440001234,467.72578440001234,467.72578440001234,f,1,1.1927970999968238,,,,,,,,,,,,,,,,,,,,468.92693890002556,,,,230624_lkx,女,研究生及以上,21,001,2023-06-24_16h13.25.381,nalin_IRAP,2023.1.2,120.13094268969822,
"恭喜，你已达成80%正确率，可以继续实验

~请按空格键进入测试阶段~",快乐,"(0.0, 0.3)",j,,,,,,,,,,,,,,,,,,,,,,,,,0,0,0,0,3,10,82,1,,,,,,,,,,,,,,,,,,,,,,,,,,,,,,,,,,,,,,469.43413410003996,469.43413410003996,469.43413410003996,469.43413410003996,469.43413410003996,j,1,0.6428997000330128,,,,,,,,,,,,,,,,,,,,470.0850312000257,,,,230624_lkx,女,研究生及以上,21,001,2023-06-24_16h13.25.381,nalin_IRAP,2023.1.2,120.13094268969822,
"恭喜，你已达成80%正确率，可以继续实验

~请按空格键进入测试阶段~",愉快,"(0.0, -0.15)",f,,,,,,,,,,,,,,,,,,,,,,,,,0,0,0,0,3,11,83,17,,,,,,,,,,,,,,,,,,,,,,,,,,,,,,,,,,,,,,470.5922773000202,470.5922773000202,470.5922773000202,470.5922773000202,470.5922773000202,f,1,0.9653285999665968,,,,,,,,,,,,,,,,,,,,471.56748090003384,,,,230624_lkx,女,研究生及以上,21,001,2023-06-24_16h13.25.381,nalin_IRAP,2023.1.2,120.13094268969822,
"恭喜，你已达成80%正确率，可以继续实验

~请按空格键进入测试阶段~",欣喜,"(0.0, 0.3)",j,,,,,,,,,,,,,,,,,,,,,,,,,0,0,0,0,3,12,84,3,,,,,,,,,,,,,,,,,,,,,,,,,,,,,,,,,,,,,,472.0764354999992,472.0764354999992,472.0764354999992,472.0764354999992,472.0764354999992,j,1,0.5837483999785036,,,,,,,,,,,,,,,,,,,,472.674141400028,,,,230624_lkx,女,研究生及以上,21,001,2023-06-24_16h13.25.381,nalin_IRAP,2023.1.2,120.13094268969822,
"恭喜，你已达成80%正确率，可以继续实验

~请按空格键进入测试阶段~",快乐,"(0.0, -0.15)",f,,,,,,,,,,,,,,,,,,,,,,,,,0,0,0,0,3,13,85,13,,,,,,,,,,,,,,,,,,,,,,,,,,,,,,,,,,,,,,473.1849968000315,473.1849968000315,473.1849968000315,473.1849968000315,473.1849968000315,f,1,0.7168804999673739,,,,,,,,,,,,,,,,,,,,473.9114828000311,474.4177667000331,,,230624_lkx,女,研究生及以上,21,001,2023-06-24_16h13.25.381,nalin_IRAP,2023.1.2,120.13094268969822,
"恭喜，你已达成80%正确率，可以继续实验

