instr_text,textStim,textStimPos,correKey,LearnC_repeatIF.thisRepN,LearnC_repeatIF.thisTrialN,LearnC_repeatIF.thisN,LearnC_repeatIF.thisIndex,Learn_com_24x1.thisRepN,Learn_com_24x1.thisTrialN,Learn_com_24x1.thisN,Learn_com_24x1.thisIndex,TestC_repeatIF.thisRepN,TestC_repeatIF.thisTrialN,TestC_repeatIF.thisN,TestC_repeatIF.thisIndex,Test_com_24x6.thisRepN,Test_com_24x6.thisTrialN,Test_com_24x6.thisN,Test_com_24x6.thisIndex,LearnI_repeatIF.thisRepN,LearnI_repeatIF.thisTrialN,LearnI_repeatIF.thisN,LearnI_repeatIF.thisIndex,Learn_incom_24x1.thisRepN,Learn_incom_24x1.thisTrialN,Learn_incom_24x1.thisN,Learn_incom_24x1.thisIndex,TestI_repeatIF.thisRepN,TestI_repeatIF.thisTrialN,TestI_repeatIF.thisN,TestI_repeatIF.thisIndex,Test_incom_24x6.thisRepN,Test_incom_24x6.thisTrialN,Test_incom_24x6.thisN,Test_incom_24x6.thisIndex,instr_start.started,key_start.started,key_start.keys,key_start.rt,instr_above.started,Stim_R.started,lines_R.started,note1_R.started,note2_R.started,instr_R.started,Stim_L.started,lines_L.started,note1_L.started,note2_L.started,instr_L.started,key_continue.started,instr_contin.started,key_continue.keys,key_continue.rt,instr_ask.started,ask_learn.started,ask_learn.keys,ask_learn.rt,Stim_learn.started,lines_learn.started,note1_learn.started,note2_learn.started,Resp_learn.started,Resp_learn.keys,Resp_learn.corr,Resp_learn.rt,text_judge.started,congra_ask.started,ask_test.started,ask_test.keys,ask_test.rt,Stim.started,lines.started,note2.started,note1.started,key_resp.started,key_resp.keys,key_resp.corr,key_resp.rt,text_fb.started,text_fb.stopped,above_instr.started,R_stim.started,R_lines.started,R_note1.started,R_note2.started,R_instr.started,L_stim.started,L_lines.started,L_note1.started,L_note2.started,L_instr.started,continue_key.started,contin_instr.started,continue_key.keys,continue_key.rt,text_jd2.started,text_jd2.stopped,text_fb2.started,text_fb2.stopped,text_end.started,text_end.stopped,participant,gender,education,age,session,date,expName,psychopyVersion,frameRate,
,,,,,,,,,,,,,,,,,,,,,,,,,,,,,,,,,,,,33.284468800004106,33.284468800004106,space,12.337601999985054,,,,,,,,,,,,,,,,,,,,,,,,,,,,,,,,,,,,,,,,,,,,,,,,,,,,,,,,,,,,,,,,230624_lqy,女,大学,46,001,2023-06-24_16h51.43.963,nalin_IRAP,2023.1.2,91.06804601294814,
,,,,,,,,,,,,,,,,,,,,,,,,,,,,,,,,,,,,,,,,45.65199179999763,45.65199179999763,45.65199179999763,45.65199179999763,45.65199179999763,45.65199179999763,45.65199179999763,45.65199179999763,45.65199179999763,45.65199179999763,45.65199179999763,45.65199179999763,45.65199179999763,space,67.28423450002447,,,,,,,,,,,,,,,,,,,,,,,,,,,,,,,,,,,,,,,,,,,,,,,,,230624_lqy,女,大学,46,001,2023-06-24_16h51.43.963,nalin_IRAP,2023.1.2,91.06804601294814,
~请按空格键进入练习阶段~,愉悦,"(0.0, 0.3)",f,0,0,0,0,0,0,0,2,,,,,,,,,,,,,,,,,,,,,,,,,,,,,,,,,,,,,,,,,,,,112.97253020002972,112.97253020002972,space,14.539360800001305,127.54145730001619,127.54145730001619,127.54145730001619,127.54145730001619,127.54145730001619,f,1,39.460650000022724,167.02328730002046,,,,,,,,,,,,,,,,,,,,,,,,,,,,,,,,,,,,230624_lqy,女,大学,46,001,2023-06-24_16h51.43.963,nalin_IRAP,2023.1.2,91.06804601294814,
~请按空格键进入练习阶段~,高兴,"(0.0, 0.3)",f,0,0,0,0,0,1,1,0,,,,,,,,,,,,,,,,,,,,,,,,,,,,,,,,,,,,,,,,,,,,,,,,167.5370618000161,167.5370618000161,167.5370618000161,167.5370618000161,167.5370618000161,f,1,16.55784099997254,184.11846399999922,,,,,,,,,,,,,,,,,,,,,,,,,,,,,,,,,,,,230624_lqy,女,大学,46,001,2023-06-24_16h51.43.963,nalin_IRAP,2023.1.2,91.06804601294814,
~请按空格键进入练习阶段~,愁苦,"(0.0, -0.15)",f,0,0,0,0,0,2,2,23,,,,,,,,,,,,,,,,,,,,,,,,,,,,,,,,,,,,,,,,,,,,,,,,184.63613600004464,184.63613600004464,184.63613600004464,184.63613600004464,184.63613600004464,j,0,18.51464260002831,203.17041870002868,,,,,,,,,,,,,,,,,,,,,,,,,,,,,,,,,,,,230624_lqy,女,大学,46,001,2023-06-24_16h51.43.963,nalin_IRAP,2023.1.2,91.06804601294814,
~请按空格键进入练习阶段~,忧郁,"(0.0, 0.3)",j,0,0,0,0,0,3,3,10,,,,,,,,,,,,,,,,,,,,,,,,,,,,,,,,,,,,,,,,,,,,,,,,203.68446690001292,203.68446690001292,203.68446690001292,203.68446690001292,203.68446690001292,j,1,13.438247899990529,217.13922200002708,,,,,,,,,,,,,,,,,,,,,,,,,,,,,,,,,,,,230624_lqy,女,大学,46,001,2023-06-24_16h51.43.963,nalin_IRAP,2023.1.2,91.06804601294814,
~请按空格键进入练习阶段~,伤心,"(0.0, 0.3)",j,0,0,0,0,0,4,4,6,,,,,,,,,,,,,,,,,,,,,,,,,,,,,,,,,,,,,,,,,,,,,,,,217.6542327000061,217.6542327000061,217.6542327000061,217.6542327000061,217.6542327000061,j,1,8.776402800052892,226.45722520002164,,,,,,,,,,,,,,,,,,,,,,,,,,,,,,,,,,,,230624_lqy,女,大学,46,001,2023-06-24_16h51.43.963,nalin_IRAP,2023.1.2,91.06804601294814,
~请按空格键进入练习阶段~,伤心,"(0.0, -0.15)",f,0,0,0,0,0,5,5,18,,,,,,,,,,,,,,,,,,,,,,,,,,,,,,,,,,,,,,,,,,,,,,,,226.96255620004376,226.96255620004376,226.96255620004376,226.96255620004376,226.96255620004376,f,1,2.5610382999875583,229.53822769998806,,,,,,,,,,,,,,,,,,,,,,,,,,,,,,,,,,,,230624_lqy,女,大学,46,001,2023-06-24_16h51.43.963,nalin_IRAP,2023.1.2,91.06804601294814,
~请按空格键进入练习阶段~,失落,"(0.0, 0.3)",j,0,0,0,0,0,6,6,7,,,,,,,,,,,,,,,,,,,,,,,,,,,,,,,,,,,,,,,,,,,,,,,,230.05146720004268,230.05146720004268,230.05146720004268,230.05146720004268,230.05146720004268,j,1,2.030968999955803,232.10161280003376,,,,,,,,,,,,,,,,,,,,,,,,,,,,,,,,,,,,230624_lqy,女,大学,46,001,2023-06-24_16h51.43.963,nalin_IRAP,2023.1.2,91.06804601294814,
~请按空格键进入练习阶段~,难过,"(0.0, 0.3)",j,0,0,0,0,0,7,7,8,,,,,,,,,,,,,,,,,,,,,,,,,,,,,,,,,,,,,,,,,,,,,,,,232.60719200002495,232.60719200002495,232.60719200002495,232.60719200002495,232.60719200002495,j,1,3.04489449999528,235.6671975000063,,,,,,,,,,,,,,,,,,,,,,,,,,,,,,,,,,,,230624_lqy,女,大学,46,001,2023-06-24_16h51.43.963,nalin_IRAP,2023.1.2,91.06804601294814,
~请按空格键进入练习阶段~,悲伤,"(0.0, -0.15)",f,0,0,0,0,0,8,8,21,,,,,,,,,,,,,,,,,,,,,,,,,,,,,,,,,,,,,,,,,,,,,,,,236.18364220001968,236.18364220001968,236.18364220001968,236.18364220001968,236.18364220001968,f,1,2.064508899988141,238.26887830003398,,,,,,,,,,,,,,,,,,,,,,,,,,,,,,,,,,,,230624_lqy,女,大学,46,001,2023-06-24_16h51.43.963,nalin_IRAP,2023.1.2,91.06804601294814,
~请按空格键进入练习阶段~,愁苦,"(0.0, 0.3)",j,0,0,0,0,0,9,9,11,,,,,,,,,,,,,,,,,,,,,,,,,,,,,,,,,,,,,,,,,,,,,,,,238.7748348999885,238.7748348999885,238.7748348999885,238.7748348999885,238.7748348999885,j,1,2.0036225999938324,240.80119540001033,,,,,,,,,,,,,,,,,,,,,,,,,,,,,,,,,,,,230624_lqy,女,大学,46,001,2023-06-24_16h51.43.963,nalin_IRAP,2023.1.2,91.06804601294814,
~请按空格键进入练习阶段~,快乐,"(0.0, 0.3)",f,0,0,0,0,0,10,10,1,,,,,,,,,,,,,,,,,,,,,,,,,,,,,,,,,,,,,,,,,,,,,,,,241.32052559999283,241.32052559999283,241.32052559999283,241.32052559999283,241.32052559999283,f,1,3.3027581000351347,244.64271590003045,,,,,,,,,,,,,,,,,,,,,,,,,,,,,,,,,,,,230624_lqy,女,大学,46,001,2023-06-24_16h51.43.963,nalin_IRAP,2023.1.2,91.06804601294814,
~请按空格键进入练习阶段~,愉快,"(0.0, -0.15)",j,0,0,0,0,0,11,11,17,,,,,,,,,,,,,,,,,,,,,,,,,,,,,,,,,,,,,,,,,,,,,,,,245.14904019999085,245.14904019999085,245.14904019999085,245.14904019999085,245.14904019999085,j,1,2.126383700000588,247.2928565000184,,,,,,,,,,,,,,,,,,,,,,,,,,,,,,,,,,,,230624_lqy,女,大学,46,001,2023-06-24_16h51.43.963,nalin_IRAP,2023.1.2,91.06804601294814,
~请按空格键进入练习阶段~,喜悦,"(0.0, 0.3)",f,0,0,0,0,0,12,12,4,,,,,,,,,,,,,,,,,,,,,,,,,,,,,,,,,,,,,,,,,,,,,,,,247.80858820001595,247.80858820001595,247.80858820001595,247.80858820001595,247.80858820001595,f,1,3.596912999986671,251.42826330004027,,,,,,,,,,,,,,,,,,,,,,,,,,,,,,,,,,,,230624_lqy,女,大学,46,001,2023-06-24_16h51.43.963,nalin_IRAP,2023.1.2,91.06804601294814,
~请按空格键进入练习阶段~,愉快,"(0.0, 0.3)",f,0,0,0,0,0,13,13,5,,,,,,,,,,,,,,,,,,,,,,,,,,,,,,,,,,,,,,,,,,,,,,,,251.9377380000078,251.9377380000078,251.9377380000078,251.9377380000078,251.9377380000078,f,1,1.5495706999790855,253.50875280000037,,,,,,,,,,,,,,,,,,,,,,,,,,,,,,,,,,,,230624_lqy,女,大学,46,001,2023-06-24_16h51.43.963,nalin_IRAP,2023.1.2,91.06804601294814,
~请按空格键进入练习阶段~,难过,"(0.0, -0.15)",f,0,0,0,0,0,14,14,20,,,,,,,,,,,,,,,,,,,,,,,,,,,,,,,,,,,,,,,,,,,,,,,,254.02040540002054,254.02040540002054,254.02040540002054,254.02040540002054,254.02040540002054,j,0,5.299904599960428,259.33698260004167,,,,,,,,,,,,,,,,,,,,,,,,,,,,,,,,,,,,230624_lqy,女,大学,46,001,2023-06-24_16h51.43.963,nalin_IRAP,2023.1.2,91.06804601294814,
~请按空格键进入练习阶段~,喜悦,"(0.0, -0.15)",j,0,0,0,0,0,15,15,16,,,,,,,,,,,,,,,,,,,,,,,,,,,,,,,,,,,,,,,,,,,,,,,,259.8385352999903,259.8385352999903,259.8385352999903,259.8385352999903,259.8385352999903,j,1,2.064726000011433,261.9300615999964,,,,,,,,,,,,,,,,,,,,,,,,,,,,,,,,,,,,230624_lqy,女,大学,46,001,2023-06-24_16h51.43.963,nalin_IRAP,2023.1.2,91.06804601294814,
~请按空格键进入练习阶段~,失落,"(0.0, -0.15)",f,0,0,0,0,0,16,16,19,,,,,,,,,,,,,,,,,,,,,,,,,,,,,,,,,,,,,,,,,,,,,,,,262.4453842000221,262.4453842000221,262.4453842000221,262.4453842000221,262.4453842000221,f,1,2.660585900011938,265.1342363000149,,,,,,,,,,,,,,,,,,,,,,,,,,,,,,,,,,,,230624_lqy,女,大学,46,001,2023-06-24_16h51.43.963,nalin_IRAP,2023.1.2,91.06804601294814,
~请按空格键进入练习阶段~,高兴,"(0.0, -0.15)",j,0,0,0,0,0,17,17,12,,,,,,,,,,,,,,,,,,,,,,,,,,,,,,,,,,,,,,,,,,,,,,,,265.64992820000043,265.64992820000043,265.64992820000043,265.64992820000043,265.64992820000043,j,1,1.7567692999728024,267.424507800024,,,,,,,,,,,,,,,,,,,,,,,,,,,,,,,,,,,,230624_lqy,女,大学,46,001,2023-06-24_16h51.43.963,nalin_IRAP,2023.1.2,91.06804601294814,
~请按空格键进入练习阶段~,忧郁,"(0.0, -0.15)",f,0,0,0,0,0,18,18,22,,,,,,,,,,,,,,,,,,,,,,,,,,,,,,,,,,,,,,,,,,,,,,,,267.92883250000887,267.92883250000887,267.92883250000887,267.92883250000887,267.92883250000887,f,1,3.383164200000465,271.3347582000424,,,,,,,,,,,,,,,,,,,,,,,,,,,,,,,,,,,,230624_lqy,女,大学,46,001,2023-06-24_16h51.43.963,nalin_IRAP,2023.1.2,91.06804601294814,
~请按空格键进入练习阶段~,悲伤,"(0.0, 0.3)",j,0,0,0,0,0,19,19,9,,,,,,,,,,,,,,,,,,,,,,,,,,,,,,,,,,,,,,,,,,,,,,,,271.84634799999185,271.84634799999185,271.84634799999185,271.84634799999185,271.84634799999185,j,1,4.5424100999953225,276.4191423000302,,,,,,,,,,,,,,,,,,,,,,,,,,,,,,,,,,,,230624_lqy,女,大学,46,001,2023-06-24_16h51.43.963,nalin_IRAP,2023.1.2,91.06804601294814,
~请按空格键进入练习阶段~,愉悦,"(0.0, -0.15)",j,0,0,0,0,0,20,20,14,,,,,,,,,,,,,,,,,,,,,,,,,,,,,,,,,,,,,,,,,,,,,,,,276.9244510999997,276.9244510999997,276.9244510999997,276.9244510999997,276.9244510999997,j,1,1.383414999989327,278.32870670000557,,,,,,,,,,,,,,,,,,,,,,,,,,,,,,,,,,,,230624_lqy,女,大学,46,001,2023-06-24_16h51.43.963,nalin_IRAP,2023.1.2,91.06804601294814,
~请按空格键进入练习阶段~,快乐,"(0.0, -0.15)",j,0,0,0,0,0,21,21,13,,,,,,,,,,,,,,,,,,,,,,,,,,,,,,,,,,,,,,,,,,,,,,,,278.8467447000439,278.8467447000439,278.8467447000439,278.8467447000439,278.8467447000439,j,1,1.089787700038869,279.95983539998997,,,,,,,,,,,,,,,,,,,,,,,,,,,,,,,,,,,,230624_lqy,女,大学,46,001,2023-06-24_16h51.43.963,nalin_IRAP,2023.1.2,91.06804601294814,
~请按空格键进入练习阶段~,,,,0,0,0,0,,,,,,,,,,,,,,,,,,,,,,,,,,,,,,,,,,,,,,,,,,,,,,,,,,,,,,,,,,,,,,,,,,,,,,,,,,,,,,,,,,,,,,,,,,,,,,,,230624_lqy,女,大学,46,001,2023-06-24_16h51.43.963,nalin_IRAP,2023.1.2,91.06804601294814,
"恭喜，你已达成80%正确率，可以继续实验

~请按空格键进入测试阶段~",伤心,"(0.0, 0.3)",j,,,,,,,,,0,0,0,0,0,0,0,6,,,,,,,,,,,,,,,,,,,,,,,,,,,,,,,,,,,,,,,,,,,,,,,,,280.49855880002724,280.49855880002724,space,16.738335600006394,297.2616709000431,297.2616709000431,297.2616709000431,297.2616709000431,297.2616709000431,j,1,9.123481900023762,306.4070854000165,,,,,,,,,,,,,,,,,,,,,,,230624_lqy,女,大学,46,001,2023-06-24_16h51.43.963,nalin_IRAP,2023.1.2,91.06804601294814,
"恭喜，你已达成80%正确率，可以继续实验

~请按空格键进入测试阶段~",伤心,"(0.0, -0.15)",f,,,,,,,,,0,0,0,0,0,1,1,18,,,,,,,,,,,,,,,,,,,,,,,,,,,,,,,,,,,,,,,,,,,,,,,,,,,,,306.9197572999983,306.9197572999983,306.9197572999983,306.9197572999983,306.9197572999983,f,1,2.874573400011286,309.8094737000065,,,,,,,,,,,,,,,,,,,,,,,230624_lqy,女,大学,46,001,2023-06-24_16h51.43.963,nalin_IRAP,2023.1.2,91.06804601294814,
"恭喜，你已达成80%正确率，可以继续实验

~请按空格键进入测试阶段~",愁苦,"(0.0, -0.15)",f,,,,,,,,,0,0,0,0,0,2,2,23,,,,,,,,,,,,,,,,,,,,,,,,,,,,,,,,,,,,,,,,,,,,,,,,,,,,,310.3166576999938,310.3166576999938,310.3166576999938,310.3166576999938,310.3166576999938,f,1,3.561968900030479,313.89613780000946,,,,,,,,,,,,,,,,,,,,,,,230624_lqy,女,大学,46,001,2023-06-24_16h51.43.963,nalin_IRAP,2023.1.2,91.06804601294814,
"恭喜，你已达成80%正确率，可以继续实验

~请按空格键进入测试阶段~",喜悦,"(0.0, -0.15)",j,,,,,,,,,0,0,0,0,0,3,3,16,,,,,,,,,,,,,,,,,,,,,,,,,,,,,,,,,,,,,,,,,,,,,,,,,,,,,314.40428950003115,314.40428950003115,314.40428950003115,314.40428950003115,314.40428950003115,j,1,1.5242731999605894,315.95340560004115,,,,,,,,,,,,,,,,,,,,,,,230624_lqy,女,大学,46,001,2023-06-24_16h51.43.963,nalin_IRAP,2023.1.2,91.06804601294814,
"恭喜，你已达成80%正确率，可以继续实验

~请按空格键进入测试阶段~",欣喜,"(0.0, -0.15)",j,,,,,,,,,0,0,0,0,0,4,4,15,,,,,,,,,,,,,,,,,,,,,,,,,,,,,,,,,,,,,,,,,,,,,,,,,,,,,316.4705551000079,316.4705551000079,316.4705551000079,316.4705551000079,316.4705551000079,j,1,4.536880000028759,321.0249180000392,,,,,,,,,,,,,,,,,,,,,,,230624_lqy,女,大学,46,001,2023-06-24_16h51.43.963,nalin_IRAP,2023.1.2,91.06804601294814,
"恭喜，你已达成80%正确率，可以继续实验

~请按空格键进入测试阶段~",高兴,"(0.0, 0.3)",f,,,,,,,,,0,0,0,0,0,5,5,0,,,,,,,,,,,,,,,,,,,,,,,,,,,,,,,,,,,,,,,,,,,,,,,,,,,,,321.5299043999985,321.5299043999985,321.5299043999985,321.5299043999985,321.5299043999985,f,1,5.985739699972328,327.5406154000084,,,,,,,,,,,,,,,,,,,,,,,230624_lqy,女,大学,46,001,2023-06-24_16h51.43.963,nalin_IRAP,2023.1.2,91.06804601294814,
"恭喜，你已达成80%正确率，可以继续实验

~请按空格键进入测试阶段~",愉快,"(0.0, 0.3)",f,,,,,,,,,0,0,0,0,0,6,6,5,,,,,,,,,,,,,,,,,,,,,,,,,,,,,,,,,,,,,,,,,,,,,,,,,,,,,328.054598000017,328.054598000017,328.054598000017,328.054598000017,328.054598000017,f,1,1.5523114000097848,329.6212875000201,330.12823289999506,,,,,,,,,,,,,,,,,,,,,,230624_lqy,女,大学,46,001,2023-06-24_16h51.43.963,nalin_IRAP,2023.1.2,91.06804601294814,
"恭喜，你已达成80%正确率，可以继续实验

~请按空格键进入测试阶段~",失落,"(0.0, 0.3)",j,,,,,,,,,0,0,0,0,0,7,7,7,,,,,,,,,,,,,,,,,,,,,,,,,,,,,,,,,,,,,,,,,,,,,,,,,,,,,330.12823289999506,330.12823289999506,330.12823289999506,330.12823289999506,330.12823289999506,j,1,1.336268100014422,331.4794505999889,,,,,,,,,,,,,,,,,,,,,,,230624_lqy,女,大学,46,001,2023-06-24_16h51.43.963,nalin_IRAP,2023.1.2,91.06804601294814,
"恭喜，你已达成80%正确率，可以继续实验

~请按空格键进入测试阶段~",难过,"(0.0, -0.15)",f,,,,,,,,,0,0,0,0,0,8,8,20,,,,,,,,,,,,,,,,,,,,,,,,,,,,,,,,,,,,,,,,,,,,,,,,,,,,,331.9905720000388,331.9905720000388,331.9905720000388,331.9905720000388,331.9905720000388,f,1,7.801720899995416,339.8181707999902,,,,,,,,,,,,,,,,,,,,,,,230624_lqy,女,大学,46,001,2023-06-24_16h51.43.963,nalin_IRAP,2023.1.2,91.06804601294814,
"恭喜，你已达成80%正确率，可以继续实验

~请按空格键进入测试阶段~",快乐,"(0.0, 0.3)",f,,,,,,,,,0,0,0,0,0,9,9,1,,,,,,,,,,,,,,,,,,,,,,,,,,,,,,,,,,,,,,,,,,,,,,,,,,,,,340.3276820000028,340.3276820000028,340.3276820000028,340.3276820000028,340.3276820000028,f,1,7.9622556999675,348.3167803999968,,,,,,,,,,,,,,,,,,,,,,,230624_lqy,女,大学,46,001,2023-06-24_16h51.43.963,nalin_IRAP,2023.1.2,91.06804601294814,
"恭喜，你已达成80%正确率，可以继续实验

~请按空格键进入测试阶段~",愉悦,"(0.0, 0.3)",f,,,,,,,,,0,0,0,0,0,10,10,2,,,,,,,,,,,,,,,,,,,,,,,,,,,,,,,,,,,,,,,,,,,,,,,,,,,,,348.83296329999575,348.83296329999575,348.83296329999575,348.83296329999575,348.83296329999575,f,1,1.4112782999873161,350.2579791000462,,,,,,,,,,,,,,,,,,,,,,,230624_lqy,女,大学,46,001,2023-06-24_16h51.43.963,nalin_IRAP,2023.1.2,91.06804601294814,
"恭喜，你已达成80%正确率，可以继续实验

~请按空格键进入测试阶段~",快乐,"(0.0, -0.15)",j,,,,,,,,,0,0,0,0,0,11,11,13,,,,,,,,,,,,,,,,,,,,,,,,,,,,,,,,,,,,,,,,,,,,,,,,,,,,,350.7748845000169,350.7748845000169,350.7748845000169,350.7748845000169,350.7748845000169,j,1,2.2609702000045218,353.0548082999885,,,,,,,,,,,,,,,,,,,,,,,230624_lqy,女,大学,46,001,2023-06-24_16h51.43.963,nalin_IRAP,2023.1.2,91.06804601294814,
"恭喜，你已达成80%正确率，可以继续实验

~请按空格键进入测试阶段~",悲伤,"(0.0, -0.15)",f,,,,,,,,,0,0,0,0,0,12,12,21,,,,,,,,,,,,,,,,,,,,,,,,,,,,,,,,,,,,,,,,,,,,,,,,,,,,,353.56141870003194,353.56141870003194,353.56141870003194,353.56141870003194,353.56141870003194,f,1,2.160720499989111,355.7367576000397,,,,,,,,,,,,,,,,,,,,,,,230624_lqy,女,大学,46,001,2023-06-24_16h51.43.963,nalin_IRAP,2023.1.2,91.06804601294814,
"恭喜，你已达成80%正确率，可以继续实验

~请按空格键进入测试阶段~",忧郁,"(0.0, 0.3)",j,,,,,,,,,0,0,0,0,0,13,13,10,,,,,,,,,,,,,,,,,,,,,,,,,,,,,,,,,,,,,,,,,,,,,,,,,,,,,356.2452750999946,356.2452750999946,356.2452750999946,356.2452750999946,356.2452750999946,j,1,1.5495364000089467,357.81428250001045,,,,,,,,,,,,,,,,,,,,,,,230624_lqy,女,大学,46,001,2023-06-24_16h51.43.963,nalin_IRAP,2023.1.2,91.06804601294814,
"恭喜，你已达成80%正确率，可以继续实验

~请按空格键进入测试阶段~",高兴,"(0.0, -0.15)",j,,,,,,,,,0,0,0,0,0,14,14,12,,,,,,,,,,,,,,,,,,,,,,,,,,,,,,,,,,,,,,,,,,,,,,,,,,,,,358.3127051999909,358.3127051999909,358.3127051999909,358.3127051999909,358.3127051999909,j,1,5.8048920999863185,364.13443560001906,,,,,,,,,,,,,,,,,,,,,,,230624_lqy,女,大学,46,001,2023-06-24_16h51.43.963,nalin_IRAP,2023.1.2,91.06804601294814,
"恭喜，你已达成80%正确率，可以继续实验

~请按空格键进入测试阶段~",难过,"(0.0, 0.3)",j,,,,,,,,,0,0,0,0,0,15,15,8,,,,,,,,,,,,,,,,,,,,,,,,,,,,,,,,,,,,,,,,,,,,,,,,,,,,,364.64239610004006,364.64239610004006,364.64239610004006,364.64239610004006,364.64239610004006,j,1,2.512948600051459,367.1721366000129,367.6767168000224,,,,,,,,,,,,,,,,,,,,,,230624_lqy,女,大学,46,001,2023-06-24_16h51.43.963,nalin_IRAP,2023.1.2,91.06804601294814,
"恭喜，你已达成80%正确率，可以继续实验

~请按空格键进入测试阶段~",愉悦,"(0.0, -0.15)",j,,,,,,,,,0,0,0,0,0,16,16,14,,,,,,,,,,,,,,,,,,,,,,,,,,,,,,,,,,,,,,,,,,,,,,,,,,,,,367.6767168000224,367.6767168000224,367.6767168000224,367.6767168000224,367.6767168000224,j,1,1.513714600005187,369.2037130999961,369.71026810002513,,,,,,,,,,,,,,,,,,,,,,230624_lqy,女,大学,46,001,2023-06-24_16h51.43.963,nalin_IRAP,2023.1.2,91.06804601294814,
"恭喜，你已达成80%正确率，可以继续实验

~请按空格键进入测试阶段~",欣喜,"(0.0, 0.3)",f,,,,,,,,,0,0,0,0,0,17,17,3,,,,,,,,,,,,,,,,,,,,,,,,,,,,,,,,,,,,,,,,,,,,,,,,,,,,,369.71026810002513,369.71026810002513,369.71026810002513,369.71026810002513,369.71026810002513,f,1,2.520757299964316,372.2470371000236,372.7520940999966,,,,,,,,,,,,,,,,,,,,,,230624_lqy,女,大学,46,001,2023-06-24_16h51.43.963,nalin_IRAP,2023.1.2,91.06804601294814,
"恭喜，你已达成80%正确率，可以继续实验

~请按空格键进入测试阶段~",忧郁,"(0.0, -0.15)",f,,,,,,,,,0,0,0,0,0,18,18,22,,,,,,,,,,,,,,,,,,,,,,,,,,,,,,,,,,,,,,,,,,,,,,,,,,,,,372.7520940999966,372.7520940999966,372.7520940999966,372.7520940999966,372.7520940999966,f,1,8.237569799995981,381.00019940000493,381.5016284000012,,,,,,,,,,,,,,,,,,,,,,230624_lqy,女,大学,46,001,2023-06-24_16h51.43.963,nalin_IRAP,2023.1.2,91.06804601294814,
"恭喜，你已达成80%正确率，可以继续实验

~请按空格键进入测试阶段~",愉快,"(0.0, -0.15)",j,,,,,,,,,0,0,0,0,0,19,19,17,,,,,,,,,,,,,,,,,,,,,,,,,,,,,,,,,,,,,,,,,,,,,,,,,,,,,381.5016284000012,381.5016284000012,381.5016284000012,381.5016284000012,381.5016284000012,j,1,2.5285331000341102,384.0468424000428,384.55206340004224,,,,,,,,,,,,,,,,,,,,,,230624_lqy,女,大学,46,001,2023-06-24_16h51.43.963,nalin_IRAP,2023.1.2,91.06804601294814,
"恭喜，你已达成80%正确率，可以继续实验

~请按空格键进入测试阶段~",喜悦,"(0.0, 0.3)",f,,,,,,,,,0,0,0,0,0,20,20,4,,,,,,,,,,,,,,,,,,,,,,,,,,,,,,,,,,,,,,,,,,,,,,,,,,,,,384.55206340004224,384.55206340004224,384.55206340004224,384.55206340004224,384.55206340004224,f,1,1.7221065000048839,386.28322520002257,386.78604979999363,,,,,,,,,,,,,,,,,,,,,,230624_lqy,女,大学,46,001,2023-06-24_16h51.43.963,nalin_IRAP,2023.1.2,91.06804601294814,
"恭喜，你已达成80%正确率，可以继续实验

~请按空格键进入测试阶段~",悲伤,"(0.0, 0.3)",j,,,,,,,,,0,0,0,0,0,21,21,9,,,,,,,,,,,,,,,,,,,,,,,,,,,,,,,,,,,,,,,,,,,,,,,,,,,,,386.78604979999363,386.78604979999363,386.78604979999363,386.78604979999363,386.78604979999363,j,1,2.5820534999947995,389.38440070004435,,,,,,,,,,,,,,,,,,,,,,,230624_lqy,女,大学,46,001,2023-06-24_16h51.43.963,nalin_IRAP,2023.1.2,91.06804601294814,
"恭喜，你已达成80%正确率，可以继续实验

~请按空格键进入测试阶段~",失落,"(0.0, -0.15)",f,,,,,,,,,0,0,0,0,0,22,22,19,,,,,,,,,,,,,,,,,,,,,,,,,,,,,,,,,,,,,,,,,,,,,,,,,,,,,389.8938831000123,389.8938831000123,389.8938831000123,389.8938831000123,389.8938831000123,f,1,1.8621014000382274,391.77337860001717,392.27609500003746,,,,,,,,,,,,,,,,,,,,,,230624_lqy,女,大学,46,001,2023-06-24_16h51.43.963,nalin_IRAP,2023.1.2,91.06804601294814,
"恭喜，你已达成80%正确率，可以继续实验

~请按空格键进入测试阶段~",愁苦,"(0.0, 0.3)",j,,,,,,,,,0,0,0,0,0,23,23,11,,,,,,,,,,,,,,,,,,,,,,,,,,,,,,,,,,,,,,,,,,,,,,,,,,,,,392.27609500003746,392.27609500003746,392.27609500003746,392.27609500003746,392.27609500003746,j,1,1.227708199992776,393.5210034000338,394.02730950003024,,,,,,,,,,,,,,,,,,,,,,230624_lqy,女,大学,46,001,2023-06-24_16h51.43.963,nalin_IRAP,2023.1.2,91.06804601294814,
"恭喜，你已达成80%正确率，可以继续实验

~请按空格键进入测试阶段~",失落,"(0.0, -0.15)",f,,,,,,,,,0,0,0,0,1,0,24,19,,,,,,,,,,,,,,,,,,,,,,,,,,,,,,,,,,,,,,,,,,,,,,,,,,,,,394.02730950003024,394.02730950003024,394.02730950003024,394.02730950003024,394.02730950003024,f,1,2.1873164999997243,396.2260409000446,,,,,,,,,,,,,,,,,,,,,,,230624_lqy,女,大学,46,001,2023-06-24_16h51.43.963,nalin_IRAP,2023.1.2,91.06804601294814,
"恭喜，你已达成80%正确率，可以继续实验

~请按空格键进入测试阶段~",愁苦,"(0.0, 0.3)",j,,,,,,,,,0,0,0,0,1,1,25,11,,,,,,,,,,,,,,,,,,,,,,,,,,,,,,,,,,,,,,,,,,,,,,,,,,,,,396.7349005000433,396.7349005000433,396.7349005000433,396.7349005000433,396.7349005000433,j,1,12.582653999968898,409.3264027000405,,,,,,,,,,,,,,,,,,,,,,,230624_lqy,女,大学,46,001,2023-06-24_16h51.43.963,nalin_IRAP,2023.1.2,91.06804601294814,
"恭喜，你已达成80%正确率，可以继续实验

~请按空格键进入测试阶段~",愉悦,"(0.0, 0.3)",f,,,,,,,,,0,0,0,0,1,2,26,2,,,,,,,,,,,,,,,,,,,,,,,,,,,,,,,,,,,,,,,,,,,,,,,,,,,,,409.8350338000455,409.8350338000455,409.8350338000455,409.8350338000455,409.8350338000455,f,1,1.315702699997928,411.16125520004425,,,,,,,,,,,,,,,,,,,,,,,230624_lqy,女,大学,46,001,2023-06-24_16h51.43.963,nalin_IRAP,2023.1.2,91.06804601294814,
"恭喜，你已达成80%正确率，可以继续实验

~请按空格键进入测试阶段~",愉快,"(0.0, -0.15)",j,,,,,,,,,0,0,0,0,1,3,27,17,,,,,,,,,,,,,,,,,,,,,,,,,,,,,,,,,,,,,,,,,,,,,,,,,,,,,411.6677255000104,411.6677255000104,411.6677255000104,411.6677255000104,411.6677255000104,j,1,1.578076499979943,413.2610385000007,,,,,,,,,,,,,,,,,,,,,,,230624_lqy,女,大学,46,001,2023-06-24_16h51.43.963,nalin_IRAP,2023.1.2,91.06804601294814,
"恭喜，你已达成80%正确率，可以继续实验

~请按空格键进入测试阶段~",失落,"(0.0, 0.3)",j,,,,,,,,,0,0,0,0,1,4,28,7,,,,,,,,,,,,,,,,,,,,,,,,,,,,,,,,,,,,,,,,,,,,,,,,,,,,,413.76818320003804,413.76818320003804,413.76818320003804,413.76818320003804,413.76818320003804,j,1,1.3458370000007562,415.12489070004085,415.6272814000258,,,,,,,,,,,,,,,,,,,,,,230624_lqy,女,大学,46,001,2023-06-24_16h51.43.963,nalin_IRAP,2023.1.2,91.06804601294814,
"恭喜，你已达成80%正确率，可以继续实验

~请按空格键进入测试阶段~",愉悦,"(0.0, -0.15)",j,,,,,,,,,0,0,0,0,1,5,29,14,,,,,,,,,,,,,,,,,,,,,,,,,,,,,,,,,,,,,,,,,,,,,,,,,,,,,415.6272814000258,415.6272814000258,415.6272814000258,415.6272814000258,415.6272814000258,j,1,1.779458400036674,417.4192616000073,,,,,,,,,,,,,,,,,,,,,,,230624_lqy,女,大学,46,001,2023-06-24_16h51.43.963,nalin_IRAP,2023.1.2,91.06804601294814,
"恭喜，你已达成80%正确率，可以继续实验

~请按空格键进入测试阶段~",伤心,"(0.0, 0.3)",j,,,,,,,,,0,0,0,0,1,6,30,6,,,,,,,,,,,,,,,,,,,,,,,,,,,,,,,,,,,,,,,,,,,,,,,,,,,,,417.9258516000118,417.9258516000118,417.9258516000118,417.9258516000118,417.9258516000118,j,1,2.9006610000506043,420.8366373000317,421.3429751000367,,,,,,,,,,,,,,,,,,,,,,230624_lqy,女,大学,46,001,2023-06-24_16h51.43.963,nalin_IRAP,2023.1.2,91.06804601294814,
"恭喜，你已达成80%正确率，可以继续实验

~请按空格键进入测试阶段~",欣喜,"(0.0, 0.3)",f,,,,,,,,,0,0,0,0,1,7,31,3,,,,,,,,,,,,,,,,,,,,,,,,,,,,,,,,,,,,,,,,,,,,,,,,,,,,,421.3429751000367,421.3429751000367,421.3429751000367,421.3429751000367,421.3429751000367,f,1,1.9296406999928877,423.2888944000006,423.7935400000424,,,,,,,,,,,,,,,,,,,,,,230624_lqy,女,大学,46,001,2023-06-24_16h51.43.963,nalin_IRAP,2023.1.2,91.06804601294814,
"恭喜，你已达成80%正确率，可以继续实验

~请按空格键进入测试阶段~",悲伤,"(0.0, -0.15)",f,,,,,,,,,0,0,0,0,1,8,32,21,,,,,,,,,,,,,,,,,,,,,,,,,,,,,,,,,,,,,,,,,,,,,,,,,,,,,423.7935400000424,423.7935400000424,423.7935400000424,423.7935400000424,423.7935400000424,f,1,11.416384299984202,435.2288972000242,435.73571300000185,,,,,,,,,,,,,,,,,,,,,,230624_lqy,女,大学,46,001,2023-06-24_16h51.43.963,nalin_IRAP,2023.1.2,91.06804601294814,
"恭喜，你已达成80%正确率，可以继续实验

~请按空格键进入测试阶段~",忧郁,"(0.0, -0.15)",f,,,,,,,,,0,0,0,0,1,9,33,22,,,,,,,,,,,,,,,,,,,,,,,,,,,,,,,,,,,,,,,,,,,,,,,,,,,,,435.73571300000185,435.73571300000185,435.73571300000185,435.73571300000185,435.73571300000185,j,0,1.1573518000077456,436.9085560000385,437.41157270001713,,,,,,,,,,,,,,,,,,,,,,230624_lqy,女,大学,46,001,2023-06-24_16h51.43.963,nalin_IRAP,2023.1.2,91.06804601294814,
"恭喜，你已达成80%正确率，可以继续实验

~请按空格键进入测试阶段~",高兴,"(0.0, 0.3)",f,,,,,,,,,0,0,0,0,1,10,34,0,,,,,,,,,,,,,,,,,,,,,,,,,,,,,,,,,,,,,,,,,,,,,,,,,,,,,437.41157270001713,437.41157270001713,437.41157270001713,437.41157270001713,437.41157270001713,f,1,1.705323199974373,439.1293917000294,439.6357905000332,,,,,,,,,,,,,,,,,,,,,,230624_lqy,女,大学,46,001,2023-06-24_16h51.43.963,nalin_IRAP,2023.1.2,91.06804601294814,
"恭喜，你已达成80%正确率，可以继续实验

~请按空格键进入测试阶段~",忧郁,"(0.0, 0.3)",j,,,,,,,,,0,0,0,0,1,11,35,10,,,,,,,,,,,,,,,,,,,,,,,,,,,,,,,,,,,,,,,,,,,,,,,,,,,,,439.6357905000332,439.6357905000332,439.6357905000332,439.6357905000332,439.6357905000332,j,1,1.2608984999824315,440.91165990004083,441.41922780004097,,,,,,,,,,,,,,,,,,,,,,230624_lqy,女,大学,46,001,2023-06-24_16h51.43.963,nalin_IRAP,2023.1.2,91.06804601294814,
"恭喜，你已达成80%正确率，可以继续实验

~请按空格键进入测试阶段~",快乐,"(0.0, 0.3)",f,,,,,,,,,0,0,0,0,1,12,36,1,,,,,,,,,,,,,,,,,,,,,,,,,,,,,,,,,,,,,,,,,,,,,,,,,,,,,441.41922780004097,441.41922780004097,441.41922780004097,441.41922780004097,441.41922780004097,f,1,0.7305198999820277,442.1596439999994,,,,,,,,,,,,,,,,,,,,,,,230624_lqy,女,大学,46,001,2023-06-24_16h51.43.963,nalin_IRAP,2023.1.2,91.06804601294814,
"恭喜，你已达成80%正确率，可以继续实验

~请按空格键进入测试阶段~",悲伤,"(0.0, 0.3)",j,,,,,,,,,0,0,0,0,1,13,37,9,,,,,,,,,,,,,,,,,,,,,,,,,,,,,,,,,,,,,,,,,,,,,,,,,,,,,442.6682748000021,442.6682748000021,442.6682748000021,442.6682748000021,442.6682748000021,j,1,1.153160099987872,443.83418370003346,,,,,,,,,,,,,,,,,,,,,,,230624_lqy,女,大学,46,001,2023-06-24_16h51.43.963,nalin_IRAP,2023.1.2,91.06804601294814,
"恭喜，你已达成80%正确率，可以继续实验

~请按空格键进入测试阶段~",愁苦,"(0.0, -0.15)",f,,,,,,,,,0,0,0,0,1,14,38,23,,,,,,,,,,,,,,,,,,,,,,,,,,,,,,,,,,,,,,,,,,,,,,,,,,,,,444.34198480000487,444.34198480000487,444.34198480000487,444.34198480000487,444.34198480000487,f,1,6.799338900018483,451.15869770001154,451.6617656000308,,,,,,,,,,,,,,,,,,,,,,230624_lqy,女,大学,46,001,2023-06-24_16h51.43.963,nalin_IRAP,2023.1.2,91.06804601294814,
"恭喜，你已达成80%正确率，可以继续实验

~请按空格键进入测试阶段~",欣喜,"(0.0, -0.15)",j,,,,,,,,,0,0,0,0,1,15,39,15,,,,,,,,,,,,,,,,,,,,,,,,,,,,,,,,,,,,,,,,,,,,,,,,,,,,,451.6617656000308,451.6617656000308,451.6617656000308,451.6617656000308,451.6617656000308,j,1,1.000190399994608,452.67839580000145,453.18473540002014,,,,,,,,,,,,,,,,,,,,,,230624_lqy,女,大学,46,001,2023-06-24_16h51.43.963,nalin_IRAP,2023.1.2,91.06804601294814,
"恭喜，你已达成80%正确率，可以继续实验

~请按空格键进入测试阶段~",难过,"(0.0, -0.15)",f,,,,,,,,,0,0,0,0,1,16,40,20,,,,,,,,,,,,,,,,,,,,,,,,,,,,,,,,,,,,,,,,,,,,,,,,,,,,,453.18473540002014,453.18473540002014,453.18473540002014,453.18473540002014,453.18473540002014,j,0,3.1191994000109844,456.3193930000416,456.8213066000026,,,,,,,,,,,,,,,,,,,,,,230624_lqy,女,大学,46,001,2023-06-24_16h51.43.963,nalin_IRAP,2023.1.2,91.06804601294814,
"恭喜，你已达成80%正确率，可以继续实验

~请按空格键进入测试阶段~",伤心,"(0.0, -0.15)",f,,,,,,,,,0,0,0,0,1,17,41,18,,,,,,,,,,,,,,,,,,,,,,,,,,,,,,,,,,,,,,,,,,,,,,,,,,,,,456.8213066000026,456.8213066000026,456.8213066000026,456.8213066000026,456.8213066000026,f,1,1.7797278999933042,458.6179747999995,,,,,,,,,,,,,,,,,,,,,,,230624_lqy,女,大学,46,001,2023-06-24_16h51.43.963,nalin_IRAP,2023.1.2,91.06804601294814,
"恭喜，你已达成80%正确率，可以继续实验

~请按空格键进入测试阶段~",高兴,"(0.0, -0.15)",j,,,,,,,,,0,0,0,0,1,18,42,12,,,,,,,,,,,,,,,,,,,,,,,,,,,,,,,,,,,,,,,,,,,,,,,,,,,,,459.1267783000367,459.1267783000367,459.1267783000367,459.1267783000367,459.1267783000367,j,1,1.6459364999900572,460.78353469999274,461.2847648000461,,,,,,,,,,,,,,,,,,,,,,230624_lqy,女,大学,46,001,2023-06-24_16h51.43.963,nalin_IRAP,2023.1.2,91.06804601294814,
"恭喜，你已达成80%正确率，可以继续实验

~请按空格键进入测试阶段~",难过,"(0.0, 0.3)",j,,,,,,,,,0,0,0,0,1,19,43,8,,,,,,,,,,,,,,,,,,,,,,,,,,,,,,,,,,,,,,,,,,,,,,,,,,,,,461.2847648000461,461.2847648000461,461.2847648000461,461.2847648000461,461.2847648000461,j,1,2.696212899987586,463.99795470002573,464.5021870000055,,,,,,,,,,,,,,,,,,,,,,230624_lqy,女,大学,46,001,2023-06-24_16h51.43.963,nalin_IRAP,2023.1.2,91.06804601294814,
"恭喜，你已达成80%正确率，可以继续实验

~请按空格键进入测试阶段~",喜悦,"(0.0, 0.3)",f,,,,,,,,,0,0,0,0,1,20,44,4,,,,,,,,,,,,,,,,,,,,,,,,,,,,,,,,,,,,,,,,,,,,,,,,,,,,,464.5021870000055,464.5021870000055,464.5021870000055,464.5021870000055,464.5021870000055,f,1,0.8422339000389911,465.36263430002145,465.86902199999895,,,,,,,,,,,,,,,,,,,,,,230624_lqy,女,大学,46,001,2023-06-24_16h51.43.963,nalin_IRAP,2023.1.2,91.06804601294814,
"恭喜，你已达成80%正确率，可以继续实验

~请按空格键进入测试阶段~",愉快,"(0.0, 0.3)",f,,,,,,,,,0,0,0,0,1,21,45,5,,,,,,,,,,,,,,,,,,,,,,,,,,,,,,,,,,,,,,,,,,,,,,,,,,,,,465.86902199999895,465.86902199999895,465.86902199999895,465.86902199999895,465.86902199999895,f,1,0.9554617000394501,466.8433487000293,,,,,,,,,,,,,,,,,,,,,,,230624_lqy,女,大学,46,001,2023-06-24_16h51.43.963,nalin_IRAP,2023.1.2,91.06804601294814,
"恭喜，你已达成80%正确率，可以继续实验

~请按空格键进入测试阶段~",快乐,"(0.0, -0.15)",j,,,,,,,,,0,0,0,0,1,22,46,13,,,,,,,,,,,,,,,,,,,,,,,,,,,,,,,,,,,,,,,,,,,,,,,,,,,,,467.3523087000358,467.3523087000358,467.3523087000358,467.3523087000358,467.3523087000358,j,1,1.2590765000204556,468.62839130003704,,,,,,,,,,,,,,,,,,,,,,,230624_lqy,女,大学,46,001,2023-06-24_16h51.43.963,nalin_IRAP,2023.1.2,91.06804601294814,
"恭喜，你已达成80%正确率，可以继续实验

~请按空格键进入测试阶段~",喜悦,"(0.0, -0.15)",j,,,,,,,,,0,0,0,0,1,23,47,16,,,,,,,,,,,,,,,,,,,,,,,,,,,,,,,,,,,,,,,,,,,,,,,,,,,,,469.1358189000166,469.1358189000166,469.1358189000166,469.1358189000166,469.1358189000166,j,1,2.574585599999409,471.7229502000264,472.2272498999955,,,,,,,,,,,,,,,,,,,,,,230624_lqy,女,大学,46,001,2023-06-24_16h51.43.963,nalin_IRAP,2023.1.2,91.06804601294814,
"恭喜，你已达成80%正确率，可以继续实验

~请按空格键进入测试阶段~",高兴,"(0.0, 0.3)",f,,,,,,,,,0,0,0,0,2,0,48,0,,,,,,,,,,,,,,,,,,,,,,,,,,,,,,,,,,,,,,,,,,,,,,,,,,,,,472.2272498999955,472.2272498999955,472.2272498999955,472.2272498999955,472.2272498999955,f,1,0.9940905999974348,473.2317352000391,473.73571740003536,,,,,,,,,,,,,,,,,,,,,,230624_lqy,女,大学,46,001,2023-06-24_16h51.43.963,nalin_IRAP,2023.1.2,91.06804601294814,
"恭喜，你已达成80%正确率，可以继续实验

~请按空格键进入测试阶段~",失落,"(0.0, 0.3)",j,,,,,,,,,0,0,0,0,2,1,49,7,,,,,,,,,,,,,,,,,,,,,,,,,,,,,,,,,,,,,,,,,,,,,,,,,,,,,473.73571740003536,473.73571740003536,473.73571740003536,473.73571740003536,473.73571740003536,j,1,1.425329799996689,475.1710836000275,475.6761381000397,,,,,,,,,,,,,,,,,,,,,,230624_lqy,女,大学,46,001,2023-06-24_16h51.43.963,nalin_IRAP,2023.1.2,91.06804601294814,
"恭喜，你已达成80%正确率，可以继续实验

~请按空格键进入测试阶段~",快乐,"(0.0, 0.3)",f,,,,,,,,,0,0,0,0,2,2,50,1,,,,,,,,,,,,,,,,,,,,,,,,,,,,,,,,,,,,,,,,,,,,,,,,,,,,,475.6761381000397,475.6761381000397,475.6761381000397,475.6761381000397,475.6761381000397,f,1,0.8383549000136554,476.5317153999931,477.03609450004296,,,,,,,,,,,,,,,,,,,,,,230624_lqy,女,大学,46,001,2023-06-24_16h51.43.963,nalin_IRAP,2023.1.2,91.06804601294814,
"恭喜，你已达成80%正确率，可以继续实验

~请按空格键进入测试阶段~",愁苦,"(0.0, -0.15)",f,,,,,,,,,0,0,0,0,2,3,51,23,,,,,,,,,,,,,,,,,,,,,,,,,,,,,,,,,,,,,,,,,,,,,,,,,,,,,477.03609450004296,477.03609450004296,477.03609450004296,477.03609450004296,477.03609450004296,f,1,3.8759295999770984,480.92228240001714,481.4263460999937,,,,,,,,,,,,,,,,,,,,,,230624_lqy,女,大学,46,001,2023-06-24_16h51.43.963,nalin_IRAP,2023.1.2,91.06804601294814,
"恭喜，你已达成80%正确率，可以继续实验

~请按空格键进入测试阶段~",高兴,"(0.0, -0.15)",j,,,,,,,,,0,0,0,0,2,4,52,12,,,,,,,,,,,,,,,,,,,,,,,,,,,,,,,,,,,,,,,,,,,,,,,,,,,,,481.4263460999937,481.4263460999937,481.4263460999937,481.4263460999937,481.4263460999937,j,1,1.0715466000256129,482.51145779999206,,,,,,,,,,,,,,,,,,,,,,,230624_lqy,女,大学,46,001,2023-06-24_16h51.43.963,nalin_IRAP,2023.1.2,91.06804601294814,
"恭喜，你已达成80%正确率，可以继续实验

~请按空格键进入测试阶段~",失落,"(0.0, -0.15)",f,,,,,,,,,0,0,0,0,2,5,53,19,,,,,,,,,,,,,,,,,,,,,,,,,,,,,,,,,,,,,,,,,,,,,,,,,,,,,483.0188756000134,483.0188756000134,483.0188756000134,483.0188756000134,483.0188756000134,f,1,1.9028902999707498,484.93745590001345,485.4433701999951,,,,,,,,,,,,,,,,,,,,,,230624_lqy,女,大学,46,001,2023-06-24_16h51.43.963,nalin_IRAP,2023.1.2,91.06804601294814,
"恭喜，你已达成80%正确率，可以继续实验

~请按空格键进入测试阶段~",难过,"(0.0, -0.15)",f,,,,,,,,,0,0,0,0,2,6,54,20,,,,,,,,,,,,,,,,,,,,,,,,,,,,,,,,,,,,,,,,,,,,,,,,,,,,,485.4433701999951,485.4433701999951,485.4433701999951,485.4433701999951,485.4433701999951,f,1,1.94665040000109,487.40883530001156,,,,,,,,,,,,,,,,,,,,,,,230624_lqy,女,大学,46,001,2023-06-24_16h51.43.963,nalin_IRAP,2023.1.2,91.06804601294814,
"恭喜，你已达成80%正确率，可以继续实验

~请按空格键进入测试阶段~",愉快,"(0.0, 0.3)",f,,,,,,,,,0,0,0,0,2,7,55,5,,,,,,,,,,,,,,,,,,,,,,,,,,,,,,,,,,,,,,,,,,,,,,,,,,,,,487.9183648999897,487.9183648999897,487.9183648999897,487.9183648999897,487.9183648999897,f,1,0.9366444000042975,488.86778970004525,,,,,,,,,,,,,,,,,,,,,,,230624_lqy,女,大学,46,001,2023-06-24_16h51.43.963,nalin_IRAP,2023.1.2,91.06804601294814,
"恭喜，你已达成80%正确率，可以继续实验

~请按空格键进入测试阶段~",欣喜,"(0.0, 0.3)",f,,,,,,,,,0,0,0,0,2,8,56,3,,,,,,,,,,,,,,,,,,,,,,,,,,,,,,,,,,,,,,,,,,,,,,,,,,,,,489.37720320001245,489.37720320001245,489.37720320001245,489.37720320001245,489.37720320001245,f,1,1.270258400007151,490.65642250003293,491.1602587000234,,,,,,,,,,,,,,,,,,,,,,230624_lqy,女,大学,46,001,2023-06-24_16h51.43.963,nalin_IRAP,2023.1.2,91.06804601294814,
"恭喜，你已达成80%正确率，可以继续实验

~请按空格键进入测试阶段~",忧郁,"(0.0, -0.15)",f,,,,,,,,,0,0,0,0,2,9,57,22,,,,,,,,,,,,,,,,,,,,,,,,,,,,,,,,,,,,,,,,,,,,,,,,,,,,,491.1602587000234,491.1602587000234,491.1602587000234,491.1602587000234,491.1602587000234,f,1,1.6941487999865785,492.86460430000443,493.3682661000057,,,,,,,,,,,,,,,,,,,,,,230624_lqy,女,大学,46,001,2023-06-24_16h51.43.963,nalin_IRAP,2023.1.2,91.06804601294814,
"恭喜，你已达成80%正确率，可以继续实验

~请按空格键进入测试阶段~",愁苦,"(0.0, 0.3)",j,,,,,,,,,0,0,0,0,2,10,58,11,,,,,,,,,,,,,,,,,,,,,,,,,,,,,,,,,,,,,,,,,,,,,,,,,,,,,493.3682661000057,493.3682661000057,493.3682661000057,493.3682661000057,493.3682661000057,j,1,1.503175400022883,494.8821161999949,495.38429590000305,,,,,,,,,,,,,,,,,,,,,,230624_lqy,女,大学,46,001,2023-06-24_16h51.43.963,nalin_IRAP,2023.1.2,91.06804601294814,
"恭喜，你已达成80%正确率，可以继续实验

~请按空格键进入测试阶段~",愉悦,"(0.0, 0.3)",f,,,,,,,,,0,0,0,0,2,11,59,2,,,,,,,,,,,,,,,,,,,,,,,,,,,,,,,,,,,,,,,,,,,,,,,,,,,,,495.38429590000305,495.38429590000305,495.38429590000305,495.38429590000305,495.38429590000305,f,1,0.8654852999607101,496.2584629000048,496.76101020001806,,,,,,,,,,,,,,,,,,,,,,230624_lqy,女,大学,46,001,2023-06-24_16h51.43.963,nalin_IRAP,2023.1.2,91.06804601294814,
"恭喜，你已达成80%正确率，可以继续实验

~请按空格键进入测试阶段~",悲伤,"(0.0, -0.15)",f,,,,,,,,,0,0,0,0,2,12,60,21,,,,,,,,,,,,,,,,,,,,,,,,,,,,,,,,,,,,,,,,,,,,,,,,,,,,,496.76101020001806,496.76101020001806,496.76101020001806,496.76101020001806,496.76101020001806,f,1,1.3480794000206515,498.1258099999977,,,,,,,,,,,,,,,,,,,,,,,230624_lqy,女,大学,46,001,2023-06-24_16h51.43.963,nalin_IRAP,2023.1.2,91.06804601294814,
"恭喜，你已达成80%正确率，可以继续实验

~请按空格键进入测试阶段~",难过,"(0.0, 0.3)",j,,,,,,,,,0,0,0,0,2,13,61,8,,,,,,,,,,,,,,,,,,,,,,,,,,,,,,,,,,,,,,,,,,,,,,,,,,,,,498.6353250000393,498.6353250000393,498.6353250000393,498.6353250000393,498.6353250000393,j,1,1.23807309998665,499.8881104000029,500.39488219999475,,,,,,,,,,,,,,,,,,,,,,230624_lqy,女,大学,46,001,2023-06-24_16h51.43.963,nalin_IRAP,2023.1.2,91.06804601294814,
"恭喜，你已达成80%正确率，可以继续实验

~请按空格键进入测试阶段~",伤心,"(0.0, -0.15)",f,,,,,,,,,0,0,0,0,2,14,62,18,,,,,,,,,,,,,,,,,,,,,,,,,,,,,,,,,,,,,,,,,,,,,,,,,,,,,500.39488219999475,500.39488219999475,500.39488219999475,500.39488219999475,500.39488219999475,f,1,1.3291890999535099,501.7326786000049,502.23260960000334,,,,,,,,,,,,,,,,,,,,,,230624_lqy,女,大学,46,001,2023-06-24_16h51.43.963,nalin_IRAP,2023.1.2,91.06804601294814,
"恭喜，你已达成80%正确率，可以继续实验

~请按空格键进入测试阶段~",伤心,"(0.0, 0.3)",j,,,,,,,,,0,0,0,0,2,15,63,6,,,,,,,,,,,,,,,,,,,,,,,,,,,,,,,,,,,,,,,,,,,,,,,,,,,,,502.23260960000334,502.23260960000334,502.23260960000334,502.23260960000334,502.23260960000334,j,1,1.0469368000049144,503.297016800032,503.80289290001383,,,,,,,,,,,,,,,,,,,,,,230624_lqy,女,大学,46,001,2023-06-24_16h51.43.963,nalin_IRAP,2023.1.2,91.06804601294814,
"恭喜，你已达成80%正确率，可以继续实验

~请按空格键进入测试阶段~",悲伤,"(0.0, 0.3)",j,,,,,,,,,0,0,0,0,2,16,64,9,,,,,,,,,,,,,,,,,,,,,,,,,,,,,,,,,,,,,,,,,,,,,,,,,,,,,503.80289290001383,503.80289290001383,503.80289290001383,503.80289290001383,503.80289290001383,j,1,1.4482657000189647,505.2675419000443,,,,,,,,,,,,,,,,,,,,,,,230624_lqy,女,大学,46,001,2023-06-24_16h51.43.963,nalin_IRAP,2023.1.2,91.06804601294814,
"恭喜，你已达成80%正确率，可以继续实验

~请按空格键进入测试阶段~",愉快,"(0.0, -0.15)",j,,,,,,,,,0,0,0,0,2,17,65,17,,,,,,,,,,,,,,,,,,,,,,,,,,,,,,,,,,,,,,,,,,,,,,,,,,,,,505.77677500003483,505.77677500003483,505.77677500003483,505.77677500003483,505.77677500003483,j,1,1.4326407999615185,507.2281314000138,507.7305314000114,,,,,,,,,,,,,,,,,,,,,,230624_lqy,女,大学,46,001,2023-06-24_16h51.43.963,nalin_IRAP,2023.1.2,91.06804601294814,
"恭喜，你已达成80%正确率，可以继续实验

~请按空格键进入测试阶段~",愉悦,"(0.0, -0.15)",j,,,,,,,,,0,0,0,0,2,18,66,14,,,,,,,,,,,,,,,,,,,,,,,,,,,,,,,,,,,,,,,,,,,,,,,,,,,,,507.7305314000114,507.7305314000114,507.7305314000114,507.7305314000114,507.7305314000114,j,1,1.175033200008329,508.91496280004503,509.4198241000413,,,,,,,,,,,,,,,,,,,,,,230624_lqy,女,大学,46,001,2023-06-24_16h51.43.963,nalin_IRAP,2023.1.2,91.06804601294814,
"恭喜，你已达成80%正确率，可以继续实验

~请按空格键进入测试阶段~",欣喜,"(0.0, -0.15)",j,,,,,,,,,0,0,0,0,2,19,67,15,,,,,,,,,,,,,,,,,,,,,,,,,,,,,,,,,,,,,,,,,,,,,,,,,,,,,509.4198241000413,509.4198241000413,509.4198241000413,509.4198241000413,509.4198241000413,j,1,0.9127901999745518,510.3451570000034,510.85236730001634,,,,,,,,,,,,,,,,,,,,,,230624_lqy,女,大学,46,001,2023-06-24_16h51.43.963,nalin_IRAP,2023.1.2,91.06804601294814,
"恭喜，你已达成80%正确率，可以继续实验

~请按空格键进入测试阶段~",忧郁,"(0.0, 0.3)",j,,,,,,,,,0,0,0,0,2,20,68,10,,,,,,,,,,,,,,,,,,,,,,,,,,,,,,,,,,,,,,,,,,,,,,,,,,,,,510.85236730001634,510.85236730001634,510.85236730001634,510.85236730001634,510.85236730001634,j,1,1.715765199973248,512.585593900003,,,,,,,,,,,,,,,,,,,,,,,230624_lqy,女,大学,46,001,2023-06-24_16h51.43.963,nalin_IRAP,2023.1.2,91.06804601294814,
"恭喜，你已达成80%正确率，可以继续实验

~请按空格键进入测试阶段~",喜悦,"(0.0, 0.3)",f,,,,,,,,,0,0,0,0,2,21,69,4,,,,,,,,,,,,,,,,,,,,,,,,,,,,,,,,,,,,,,,,,,,,,,,,,,,,,513.172966699989,513.172966699989,513.172966699989,513.172966699989,513.172966699989,f,1,0.9064788999967277,514.0881371000432,514.5912016000366,,,,,,,,,,,,,,,,,,,,,,230624_lqy,女,大学,46,001,2023-06-24_16h51.43.963,nalin_IRAP,2023.1.2,91.06804601294814,
"恭喜，你已达成80%正确率，可以继续实验

~请按空格键进入测试阶段~",喜悦,"(0.0, -0.15)",j,,,,,,,,,0,0,0,0,2,22,70,16,,,,,,,,,,,,,,,,,,,,,,,,,,,,,,,,,,,,,,,,,,,,,,,,,,,,,514.5912016000366,514.5912016000366,514.5912016000366,514.5912016000366,514.5912016000366,j,1,4.6214327000197954,519.224603300041,519.7276007999899,,,,,,,,,,,,,,,,,,,,,,230624_lqy,女,大学,46,001,2023-06-24_16h51.43.963,nalin_IRAP,2023.1.2,91.06804601294814,
"恭喜，你已达成80%正确率，可以继续实验

~请按空格键进入测试阶段~",快乐,"(0.0, -0.15)",j,,,,,,,,,0,0,0,0,2,23,71,13,,,,,,,,,,,,,,,,,,,,,,,,,,,,,,,,,,,,,,,,,,,,,,,,,,,,,519.7276007999899,519.7276007999899,519.7276007999899,519.7276007999899,519.7276007999899,j,1,1.0781922000460327,520.8225359999924,521.3283406000119,,,,,,,,,,,,,,,,,,,,,,230624_lqy,女,大学,46,001,2023-06-24_16h51.43.963,nalin_IRAP,2023.1.2,91.06804601294814,
"恭喜，你已达成80%正确率，可以继续实验

~请按空格键进入测试阶段~",高兴,"(0.0, 0.3)",f,,,,,,,,,0,0,0,0,3,0,72,0,,,,,,,,,,,,,,,,,,,,,,,,,,,,,,,,,,,,,,,,,,,,,,,,,,,,,521.3283406000119,521.3283406000119,521.3283406000119,521.3283406000119,521.3283406000119,f,1,0.7932213000021875,522.1361949000275,,,,,,,,,,,,,,,,,,,,,,,230624_lqy,女,大学,46,001,2023-06-24_16h51.43.963,nalin_IRAP,2023.1.2,91.06804601294814,
"恭喜，你已达成80%正确率，可以继续实验

~请按空格键进入测试阶段~",失落,"(0.0, -0.15)",f,,,,,,,,,0,0,0,0,3,1,73,19,,,,,,,,,,,,,,,,,,,,,,,,,,,,,,,,,,,,,,,,,,,,,,,,,,,,,522.6437646000413,522.6437646000413,522.6437646000413,522.6437646000413,522.6437646000413,f,1,1.3820594000280835,524.0349584000069,,,,,,,,,,,,,,,,,,,,,,,230624_lqy,女,大学,46,001,2023-06-24_16h51.43.963,nalin_IRAP,2023.1.2,91.06804601294814,
"恭喜，你已达成80%正确率，可以继续实验

~请按空格键进入测试阶段~",欣喜,"(0.0, -0.15)",j,,,,,,,,,0,0,0,0,3,2,74,15,,,,,,,,,,,,,,,,,,,,,,,,,,,,,,,,,,,,,,,,,,,,,,,,,,,,,524.5431683000061,524.5431683000061,524.5431683000061,524.5431683000061,524.5431683000061,j,1,1.1338603000040166,525.6912339000264,526.1952258000383,,,,,,,,,,,,,,,,,,,,,,230624_lqy,女,大学,46,001,2023-06-24_16h51.43.963,nalin_IRAP,2023.1.2,91.06804601294814,
"恭喜，你已达成80%正确率，可以继续实验

~请按空格键进入测试阶段~",高兴,"(0.0, -0.15)",j,,,,,,,,,0,0,0,0,3,3,75,12,,,,,,,,,,,,,,,,,,,,,,,,,,,,,,,,,,,,,,,,,,,,,,,,,,,,,526.1952258000383,526.1952258000383,526.1952258000383,526.1952258000383,526.1952258000383,j,1,1.031039299967233,527.2423844000441,,,,,,,,,,,,,,,,,,,,,,,230624_lqy,女,大学,46,001,2023-06-24_16h51.43.963,nalin_IRAP,2023.1.2,91.06804601294814,
"恭喜，你已达成80%正确率，可以继续实验

~请按空格键进入测试阶段~",愁苦,"(0.0, -0.15)",f,,,,,,,,,0,0,0,0,3,4,76,23,,,,,,,,,,,,,,,,,,,,,,,,,,,,,,,,,,,,,,,,,,,,,,,,,,,,,527.7506231000298,527.7506231000298,527.7506231000298,527.7506231000298,527.7506231000298,f,1,1.8228118999977596,529.5853907000273,,,,,,,,,,,,,,,,,,,,,,,230624_lqy,女,大学,46,001,2023-06-24_16h51.43.963,nalin_IRAP,2023.1.2,91.06804601294814,
"恭喜，你已达成80%正确率，可以继续实验

~请按空格键进入测试阶段~",愉快,"(0.0, 0.3)",f,,,,,,,,,0,0,0,0,3,5,77,5,,,,,,,,,,,,,,,,,,,,,,,,,,,,,,,,,,,,,,,,,,,,,,,,,,,,,530.0922949000378,530.0922949000378,530.0922949000378,530.0922949000378,530.0922949000378,f,1,1.0394316000165418,531.1507174000144,,,,,,,,,,,,,,,,,,,,,,,230624_lqy,女,大学,46,001,2023-06-24_16h51.43.963,nalin_IRAP,2023.1.2,91.06804601294814,
"恭喜，你已达成80%正确率，可以继续实验

~请按空格键进入测试阶段~",快乐,"(0.0, 0.3)",f,,,,,,,,,0,0,0,0,3,6,78,1,,,,,,,,,,,,,,,,,,,,,,,,,,,,,,,,,,,,,,,,,,,,,,,,,,,,,531.6598290000111,531.6598290000111,531.6598290000111,531.6598290000111,531.6598290000111,f,1,0.7962890000198968,532.4730499000289,532.9779139999882,,,,,,,,,,,,,,,,,,,,,,230624_lqy,女,大学,46,001,2023-06-24_16h51.43.963,nalin_IRAP,2023.1.2,91.06804601294814,
"恭喜，你已达成80%正确率，可以继续实验

~请按空格键进入测试阶段~",忧郁,"(0.0, 0.3)",j,,,,,,,,,0,0,0,0,3,7,79,10,,,,,,,,,,,,,,,,,,,,,,,,,,,,,,,,,,,,,,,,,,,,,,,,,,,,,532.9779139999882,532.9779139999882,532.9779139999882,532.9779139999882,532.9779139999882,j,1,1.1771806000033394,534.1738531000447,534.6787067000405,,,,,,,,,,,,,,,,,,,,,,230624_lqy,女,大学,46,001,2023-06-24_16h51.43.963,nalin_IRAP,2023.1.2,91.06804601294814,
"恭喜，你已达成80%正确率，可以继续实验

~请按空格键进入测试阶段~",喜悦,"(0.0, 0.3)",f,,,,,,,,,0,0,0,0,3,8,80,4,,,,,,,,,,,,,,,,,,,,,,,,,,,,,,,,,,,,,,,,,,,,,,,,,,,,,534.6787067000405,534.6787067000405,534.6787067000405,534.6787067000405,534.6787067000405,f,1,0.8146778999944218,535.5056137000211,536.0093573000049,,,,,,,,,,,,,,,,,,,,,,230624_lqy,女,大学,46,001,2023-06-24_16h51.43.963,nalin_IRAP,2023.1.2,91.06804601294814,
"恭喜，你已达成80%正确率，可以继续实验

~请按空格键进入测试阶段~",愉快,"(0.0, -0.15)",j,,,,,,,,,0,0,0,0,3,9,81,17,,,,,,,,,,,,,,,,,,,,,,,,,,,,,,,,,,,,,,,,,,,,,,,,,,,,,536.0093573000049,536.0093573000049,536.0093573000049,536.0093573000049,536.0093573000049,j,1,4.709028400015086,540.7317076000036,541.2349312000442,,,,,,,,,,,,,,,,,,,,,,230624_lqy,女,大学,46,001,2023-06-24_16h51.43.963,nalin_IRAP,2023.1.2,91.06804601294814,
"恭喜，你已达成80%正确率，可以继续实验

~请按空格键进入测试阶段~",伤心,"(0.0, 0.3)",j,,,,,,,,,0,0,0,0,3,10,82,6,,,,,,,,,,,,,,,,,,,,,,,,,,,,,,,,,,,,,,,,,,,,,,,,,,,,,541.2349312000442,541.2349312000442,541.2349312000442,541.2349312000442,541.2349312000442,j,1,1.3417556999484077,542.593052500044,,,,,,,,,,,,,,,,,,,,,,,230624_lqy,女,大学,46,001,2023-06-24_16h51.43.963,nalin_IRAP,2023.1.2,91.06804601294814,
"恭喜，你已达成80%正确率，可以继续实验

~请按空格键进入测试阶段~",伤心,"(0.0, -0.15)",f,,,,,,,,,0,0,0,0,3,11,83,18,,,,,,,,,,,,,,,,,,,,,,,,,,,,,,,,,,,,,,,,,,,,,,,,,,,,,543.098615600029,543.098615600029,543.098615600029,543.098615600029,543.098615600029,f,1,1.3893966000177898,544.5051437999937,545.0113663999946,,,,,,,,,,,,,,,,,,,,,,230624_lqy,女,大学,46,001,2023-06-24_16h51.43.963,nalin_IRAP,2023.1.2,91.06804601294814,
"恭喜，你已达成80%正确率，可以继续实验

~请按空格键进入测试阶段~",快乐,"(0.0, -0.15)",j,,,,,,,,,0,0,0,0,3,12,84,13,,,,,,,,,,,,,,,,,,,,,,,,,,,,,,,,,,,,,,,,,,,,,,,,,,,,,545.0113663999946,545.0113663999946,545.0113663999946,545.0113663999946,545.0113663999946,j,1,2.978095200029202,548.0022946000099,,,,,,,,,,,,,,,,,,,,,,,230624_lqy,女,大学,46,001,2023-06-24_16h51.43.963,nalin_IRAP,2023.1.2,91.06804601294814,
"恭喜，你已达成80%正确率，可以继续实验

~请按空格键进入测试阶段~",失落,"(0.0, 0.3)",j,,,,,,,,,0,0,0,0,3,13,85,7,,,,,,,,,,,,,,,,,,,,,,,,,,,,,,,,,,,,,,,,,,,,,,,,,,,,,548.5108178000082,548.5108178000082,548.5108178000082,548.5108178000082,548.5108178000082,j,1,0.9855253000278026,549.5136271000374,550.0194750000373,,,,,,,,,,,,,,,,,,,,,,230624_lqy,女,大学,46,001,2023-06-24_16h51.43.963,nalin_IRAP,2023.1.2,91.06804601294814,
"恭喜，你已达成80%正确率，可以继续实验

~请按空格键进入测试阶段~",喜悦,"(0.0, -0.15)",j,,,,,,,,,0,0,0,0,3,14,86,16,,,,,,,,,,,,,,,,,,,,,,,,,,,,,,,,,,,,,,,,,,,,,,,,,,,,,550.0194750000373,550.0194750000373,550.0194750000373,550.0194750000373,550.0194750000373,j,1,1.1157977000111714,551.1537135000108,551.6596406000317,,,,,,,,,,,,,,,,,,,,,,230624_lqy,女,大学,46,001,2023-06-24_16h51.43.963,nalin_IRAP,2023.1.2,91.06804601294814,
"恭喜，你已达成80%正确率，可以继续实验

~请按空格键进入测试阶段~",愉悦,"(0.0, -0.15)",j,,,,,,,,,0,0,0,0,3,15,87,14,,,,,,,,,,,,,,,,,,,,,,,,,,,,,,,,,,,,,,,,,,,,,,,,,,,,,551.6596406000317,551.6596406000317,551.6596406000317,551.6596406000317,551.6596406000317,j,1,0.9516328999889083,552.6204623000231,553.1268348000012,,,,,,,,,,,,,,,,,,,,,,230624_lqy,女,大学,46,001,2023-06-24_16h51.43.963,nalin_IRAP,2023.1.2,91.06804601294814,
"恭喜，你已达成80%正确率，可以继续实验

~请按空格键进入测试阶段~",悲伤,"(0.0, 0.3)",j,,,,,,,,,0,0,0,0,3,16,88,9,,,,,,,,,,,,,,,,,,,,,,,,,,,,,,,,,,,,,,,,,,,,,,,,,,,,,553.1268348000012,553.1268348000012,553.1268348000012,553.1268348000012,553.1268348000012,j,1,1.4884195000049658,554.630167700001,555.1346892000292,,,,,,,,,,,,,,,,,,,,,,230624_lqy,女,大学,46,001,2023-06-24_16h51.43.963,nalin_IRAP,2023.1.2,91.06804601294814,
"恭喜，你已达成80%正确率，可以继续实验

~请按空格键进入测试阶段~",忧郁,"(0.0, -0.15)",f,,,,,,,,,0,0,0,0,3,17,89,22,,,,,,,,,,,,,,,,,,,,,,,,,,,,,,,,,,,,,,,,,,,,,,,,,,,,,555.1346892000292,555.1346892000292,555.1346892000292,555.1346892000292,555.1346892000292,f,1,5.6121807000017725,560.7592971000122,,,,,,,,,,,,,,,,,,,,,,,230624_lqy,女,大学,46,001,2023-06-24_16h51.43.963,nalin_IRAP,2023.1.2,91.06804601294814,
"恭喜，你已达成80%正确率，可以继续实验

~请按空格键进入测试阶段~",悲伤,"(0.0, -0.15)",f,,,,,,,,,0,0,0,0,3,18,90,21,,,,,,,,,,,,,,,,,,,,,,,,,,,,,,,,,,,,,,,,,,,,,,,,,,,,,561.2696275000344,561.2696275000344,561.2696275000344,561.2696275000344,561.2696275000344,f,1,0.7571908999816515,562.0397947999882,562.5438379000407,,,,,,,,,,,,,,,,,,,,,,230624_lqy,女,大学,46,001,2023-06-24_16h51.43.963,nalin_IRAP,2023.1.2,91.06804601294814,
"恭喜，你已达成80%正确率，可以继续实验

~请按空格键进入测试阶段~",愉悦,"(0.0, 0.3)",f,,,,,,,,,0,0,0,0,3,19,91,2,,,,,,,,,,,,,,,,,,,,,,,,,,,,,,,,,,,,,,,,,,,,,,,,,,,,,562.5438379000407,562.5438379000407,562.5438379000407,562.5438379000407,562.5438379000407,f,1,0.9984850000473671,563.550698600011,,,,,,,,,,,,,,,,,,,,,,,230624_lqy,女,大学,46,001,2023-06-24_16h51.43.963,nalin_IRAP,2023.1.2,91.06804601294814,
"恭喜，你已达成80%正确率，可以继续实验

~请按空格键进入测试阶段~",欣喜,"(0.0, 0.3)",f,,,,,,,,,0,0,0,0,3,20,92,3,,,,,,,,,,,,,,,,,,,,,,,,,,,,,,,,,,,,,,,,,,,,,,,,,,,,,564.0606038999977,564.0606038999977,564.0606038999977,564.0606038999977,564.0606038999977,f,1,0.6895447999704629,564.7634065999882,565.2688694000244,,,,,,,,,,,,,,,,,,,,,,230624_lqy,女,大学,46,001,2023-06-24_16h51.43.963,nalin_IRAP,2023.1.2,91.06804601294814,
"恭喜，你已达成80%正确率，可以继续实验

~请按空格键进入测试阶段~",愁苦,"(0.0, 0.3)",j,,,,,,,,,0,0,0,0,3,21,93,11,,,,,,,,,,,,,,,,,,,,,,,,,,,,,,,,,,,,,,,,,,,,,,,,,,,,,565.2688694000244,565.2688694000244,565.2688694000244,565.2688694000244,565.2688694000244,j,1,1.1689974999753758,566.4523848000099,,,,,,,,,,,,,,,,,,,,,,,230624_lqy,女,大学,46,001,2023-06-24_16h51.43.963,nalin_IRAP,2023.1.2,91.06804601294814,
"恭喜，你已达成80%正确率，可以继续实验

~请按空格键进入测试阶段~",难过,"(0.0, -0.15)",f,,,,,,,,,0,0,0,0,3,22,94,20,,,,,,,,,,,,,,,,,,,,,,,,,,,,,,,,,,,,,,,,,,,,,,,,,,,,,566.9592341000098,566.9592341000098,566.9592341000098,566.9592341000098,566.9592341000098,f,1,1.4299312999937683,568.399782499997,568.8993186000152,,,,,,,,,,,,,,,,,,,,,,230624_lqy,女,大学,46,001,2023-06-24_16h51.43.963,nalin_IRAP,2023.1.2,91.06804601294814,
"恭喜，你已达成80%正确率，可以继续实验

~请按空格键进入测试阶段~",难过,"(0.0, 0.3)",j,,,,,,,,,0,0,0,0,3,23,95,8,,,,,,,,,,,,,,,,,,,,,,,,,,,,,,,,,,,,,,,,,,,,,,,,,,,,,568.8993186000152,568.8993186000152,568.8993186000152,568.8993186000152,568.8993186000152,j,1,0.9172079000272788,569.8281440000283,570.3375467000296,,,,,,,,,,,,,,,,,,,,,,230624_lqy,女,大学,46,001,2023-06-24_16h51.43.963,nalin_IRAP,2023.1.2,91.06804601294814,
"恭喜，你已达成80%正确率，可以继续实验

~请按空格键进入测试阶段~",快乐,"(0.0, 0.3)",f,,,,,,,,,0,0,0,0,4,0,96,1,,,,,,,,,,,,,,,,,,,,,,,,,,,,,,,,,,,,,,,,,,,,,,,,,,,,,570.3375467000296,570.3375467000296,570.3375467000296,570.3375467000296,570.3375467000296,f,1,1.046496599970851,571.4017950000125,,,,,,,,,,,,,,,,,,,,,,,230624_lqy,女,大学,46,001,2023-06-24_16h51.43.963,nalin_IRAP,2023.1.2,91.06804601294814,
"恭喜，你已达成80%正确率，可以继续实验

~请按空格键进入测试阶段~",伤心,"(0.0, 0.3)",j,,,,,,,,,0,0,0,0,4,1,97,6,,,,,,,,,,,,,,,,,,,,,,,,,,,,,,,,,,,,,,,,,,,,,,,,,,,,,571.9092887000297,571.9092887000297,571.9092887000297,571.9092887000297,571.9092887000297,j,1,1.1708092999760993,573.0961858000373,573.6025848000427,,,,,,,,,,,,,,,,,,,,,,230624_lqy,女,大学,46,001,2023-06-24_16h51.43.963,nalin_IRAP,2023.1.2,91.06804601294814,
"恭喜，你已达成80%正确率，可以继续实验

~请按空格键进入测试阶段~",忧郁,"(0.0, 0.3)",j,,,,,,,,,0,0,0,0,4,2,98,10,,,,,,,,,,,,,,,,,,,,,,,,,,,,,,,,,,,,,,,,,,,,,,,,,,,,,573.6025848000427,573.6025848000427,573.6025848000427,573.6025848000427,573.6025848000427,j,1,1.3578592000412755,574.9702508000191,575.4774152000318,,,,,,,,,,,,,,,,,,,,,,230624_lqy,女,大学,46,001,2023-06-24_16h51.43.963,nalin_IRAP,2023.1.2,91.06804601294814,
"恭喜，你已达成80%正确率，可以继续实验

~请按空格键进入测试阶段~",失落,"(0.0, 0.3)",j,,,,,,,,,0,0,0,0,4,3,99,7,,,,,,,,,,,,,,,,,,,,,,,,,,,,,,,,,,,,,,,,,,,,,,,,,,,,,575.4774152000318,575.4774152000318,575.4774152000318,575.4774152000318,575.4774152000318,j,1,0.966381200007163,576.4606838999898,,,,,,,,,,,,,,,,,,,,,,,230624_lqy,女,大学,46,001,2023-06-24_16h51.43.963,nalin_IRAP,2023.1.2,91.06804601294814,
"恭喜，你已达成80%正确率，可以继续实验

~请按空格键进入测试阶段~",快乐,"(0.0, -0.15)",j,,,,,,,,,0,0,0,0,4,4,100,13,,,,,,,,,,,,,,,,,,,,,,,,,,,,,,,,,,,,,,,,,,,,,,,,,,,,,576.9677023999975,576.9677023999975,576.9677023999975,576.9677023999975,576.9677023999975,j,1,1.7342872000299394,578.7191942000063,,,,,,,,,,,,,,,,,,,,,,,230624_lqy,女,大学,46,001,2023-06-24_16h51.43.963,nalin_IRAP,2023.1.2,91.06804601294814,
"恭喜，你已达成80%正确率，可以继续实验

~请按空格键进入测试阶段~",喜悦,"(0.0, -0.15)",j,,,,,,,,,0,0,0,0,4,5,101,16,,,,,,,,,,,,,,,,,,,,,,,,,,,,,,,,,,,,,,,,,,,,,,,,,,,,,579.227591700037,579.227591700037,579.227591700037,579.227591700037,579.227591700037,j,1,1.0785094000166282,580.321508300025,580.82710460003,,,,,,,,,,,,,,,,,,,,,,230624_lqy,女,大学,46,001,2023-06-24_16h51.43.963,nalin_IRAP,2023.1.2,91.06804601294814,
"恭喜，你已达成80%正确率，可以继续实验

~请按空格键进入测试阶段~",愁苦,"(0.0, -0.15)",f,,,,,,,,,0,0,0,0,4,6,102,23,,,,,,,,,,,,,,,,,,,,,,,,,,,,,,,,,,,,,,,,,,,,,,,,,,,,,580.82710460003,580.82710460003,580.82710460003,580.82710460003,580.82710460003,f,1,1.2901009999914095,582.1329191999976,582.632423300005,,,,,,,,,,,,,,,,,,,,,,230624_lqy,女,大学,46,001,2023-06-24_16h51.43.963,nalin_IRAP,2023.1.2,91.06804601294814,
"恭喜，你已达成80%正确率，可以继续实验

~请按空格键进入测试阶段~",愁苦,"(0.0, 0.3)",j,,,,,,,,,0,0,0,0,4,7,103,11,,,,,,,,,,,,,,,,,,,,,,,,,,,,,,,,,,,,,,,,,,,,,,,,,,,,,582.632423300005,582.632423300005,582.632423300005,582.632423300005,582.632423300005,j,1,1.2930406000232324,583.9423678000458,,,,,,,,,,,,,,,,,,,,,,,230624_lqy,女,大学,46,001,2023-06-24_16h51.43.963,nalin_IRAP,2023.1.2,91.06804601294814,
"恭喜，你已达成80%正确率，可以继续实验

~请按空格键进入测试阶段~",喜悦,"(0.0, 0.3)",f,,,,,,,,,0,0,0,0,4,8,104,4,,,,,,,,,,,,,,,,,,,,,,,,,,,,,,,,,,,,,,,,,,,,,,,,,,,,,584.4520325000049,584.4520325000049,584.4520325000049,584.4520325000049,584.4520325000049,f,1,2.1540013999911025,586.6219925000332,587.1266730999923,,,,,,,,,,,,,,,,,,,,,,230624_lqy,女,大学,46,001,2023-06-24_16h51.43.963,nalin_IRAP,2023.1.2,91.06804601294814,
"恭喜，你已达成80%正确率，可以继续实验

~请按空格键进入测试阶段~",愉快,"(0.0, -0.15)",j,,,,,,,,,0,0,0,0,4,9,105,17,,,,,,,,,,,,,,,,,,,,,,,,,,,,,,,,,,,,,,,,,,,,,,,,,,,,,587.1266730999923,587.1266730999923,587.1266730999923,587.1266730999923,587.1266730999923,j,1,1.1297771999961697,588.2685717000277,,,,,,,,,,,,,,,,,,,,,,,230624_lqy,女,大学,46,001,2023-06-24_16h51.43.963,nalin_IRAP,2023.1.2,91.06804601294814,
"恭喜，你已达成80%正确率，可以继续实验

~请按空格键进入测试阶段~",欣喜,"(0.0, 0.3)",f,,,,,,,,,0,0,0,0,4,10,106,3,,,,,,,,,,,,,,,,,,,,,,,,,,,,,,,,,,,,,,,,,,,,,,,,,,,,,588.7774633000372,588.7774633000372,588.7774633000372,588.7774633000372,588.7774633000372,f,1,1.0521622000378557,589.8467930000043,590.352030900016,,,,,,,,,,,,,,,,,,,,,,230624_lqy,女,大学,46,001,2023-06-24_16h51.43.963,nalin_IRAP,2023.1.2,91.06804601294814,
"恭喜，你已达成80%正确率，可以继续实验

~请按空格键进入测试阶段~",高兴,"(0.0, 0.3)",f,,,,,,,,,0,0,0,0,4,11,107,0,,,,,,,,,,,,,,,,,,,,,,,,,,,,,,,,,,,,,,,,,,,,,,,,,,,,,590.352030900016,590.352030900016,590.352030900016,590.352030900016,590.352030900016,f,1,0.9680530999903567,591.3409810000448,591.8440520000295,,,,,,,,,,,,,,,,,,,,,,230624_lqy,女,大学,46,001,2023-06-24_16h51.43.963,nalin_IRAP,2023.1.2,91.06804601294814,
"恭喜，你已达成80%正确率，可以继续实验

~请按空格键进入测试阶段~",愉快,"(0.0, 0.3)",f,,,,,,,,,0,0,0,0,4,12,108,5,,,,,,,,,,,,,,,,,,,,,,,,,,,,,,,,,,,,,,,,,,,,,,,,,,,,,591.8440520000295,591.8440520000295,591.8440520000295,591.8440520000295,591.8440520000295,f,1,1.1119877999881282,592.9734106000396,593.4772076000227,,,,,,,,,,,,,,,,,,,,,,230624_lqy,女,大学,46,001,2023-06-24_16h51.43.963,nalin_IRAP,2023.1.2,91.06804601294814,
"恭喜，你已达成80%正确率，可以继续实验

~请按空格键进入测试阶段~",伤心,"(0.0, -0.15)",f,,,,,,,,,0,0,0,0,4,13,109,18,,,,,,,,,,,,,,,,,,,,,,,,,,,,,,,,,,,,,,,,,,,,,,,,,,,,,593.4772076000227,593.4772076000227,593.4772076000227,593.4772076000227,593.4772076000227,f,1,4.582343899994157,598.0686535999994,,,,,,,,,,,,,,,,,,,,,,,230624_lqy,女,大学,46,001,2023-06-24_16h51.43.963,nalin_IRAP,2023.1.2,91.06804601294814,
"恭喜，你已达成80%正确率，可以继续实验

~请按空格键进入测试阶段~",悲伤,"(0.0, 0.3)",j,,,,,,,,,0,0,0,0,4,14,110,9,,,,,,,,,,,,,,,,,,,,,,,,,,,,,,,,,,,,,,,,,,,,,,,,,,,,,598.5786267000367,598.5786267000367,598.5786267000367,598.5786267000367,598.5786267000367,j,1,0.8683231000322849,599.4622843000107,599.9685107000405,,,,,,,,,,,,,,,,,,,,,,230624_lqy,女,大学,46,001,2023-06-24_16h51.43.963,nalin_IRAP,2023.1.2,91.06804601294814,
"恭喜，你已达成80%正确率，可以继续实验

~请按空格键进入测试阶段~",愉悦,"(0.0, -0.15)",j,,,,,,,,,0,0,0,0,4,15,111,14,,,,,,,,,,,,,,,,,,,,,,,,,,,,,,,,,,,,,,,,,,,,,,,,,,,,,599.9685107000405,599.9685107000405,599.9685107000405,599.9685107000405,599.9685107000405,j,1,0.9127574000158347,600.8924069000059,,,,,,,,,,,,,,,,,,,,,,,230624_lqy,女,大学,46,001,2023-06-24_16h51.43.963,nalin_IRAP,2023.1.2,91.06804601294814,
"恭喜，你已达成80%正确率，可以继续实验

~请按空格键进入测试阶段~",欣喜,"(0.0, -0.15)",j,,,,,,,,,0,0,0,0,4,16,112,15,,,,,,,,,,,,,,,,,,,,,,,,,,,,,,,,,,,,,,,,,,,,,,,,,,,,,601.4017384999897,601.4017384999897,601.4017384999897,601.4017384999897,601.4017384999897,j,1,1.029451600043103,602.4493299000314,602.9522140999907,,,,,,,,,,,,,,,,,,,,,,230624_lqy,女,大学,46,001,2023-06-24_16h51.43.963,nalin_IRAP,2023.1.2,91.06804601294814,
"恭喜，你已达成80%正确率，可以继续实验

~请按空格键进入测试阶段~",失落,"(0.0, -0.15)",f,,,,,,,,,0,0,0,0,4,17,113,19,,,,,,,,,,,,,,,,,,,,,,,,,,,,,,,,,,,,,,,,,,,,,,,,,,,,,602.9522140999907,602.9522140999907,602.9522140999907,602.9522140999907,602.9522140999907,j,0,1.29028430004837,604.2604396000388,,,,,,,,,,,,,,,,,,,,,,,230624_lqy,女,大学,46,001,2023-06-24_16h51.43.963,nalin_IRAP,2023.1.2,91.06804601294814,
"恭喜，你已达成80%正确率，可以继续实验

~请按空格键进入测试阶段~",悲伤,"(0.0, -0.15)",f,,,,,,,,,0,0,0,0,4,18,114,21,,,,,,,,,,,,,,,,,,,,,,,,,,,,,,,,,,,,,,,,,,,,,,,,,,,,,604.7687040000455,604.7687040000455,604.7687040000455,604.7687040000455,604.7687040000455,f,1,0.9457942000008188,605.7295498999883,606.2354402000201,,,,,,,,,,,,,,,,,,,,,,230624_lqy,女,大学,46,001,2023-06-24_16h51.43.963,nalin_IRAP,2023.1.2,91.06804601294814,
"恭喜，你已达成80%正确率，可以继续实验

~请按空格键进入测试阶段~",忧郁,"(0.0, -0.15)",f,,,,,,,,,0,0,0,0,4,19,115,22,,,,,,,,,,,,,,,,,,,,,,,,,,,,,,,,,,,,,,,,,,,,,,,,,,,,,606.2354402000201,606.2354402000201,606.2354402000201,606.2354402000201,606.2354402000201,f,1,0.7941890999791212,607.0397449000156,607.5425067000324,,,,,,,,,,,,,,,,,,,,,,230624_lqy,女,大学,46,001,2023-06-24_16h51.43.963,nalin_IRAP,2023.1.2,91.06804601294814,
"恭喜，你已达成80%正确率，可以继续实验

~请按空格键进入测试阶段~",难过,"(0.0, 0.3)",j,,,,,,,,,0,0,0,0,4,20,116,8,,,,,,,,,,,,,,,,,,,,,,,,,,,,,,,,,,,,,,,,,,,,,,,,,,,,,607.5425067000324,607.5425067000324,607.5425067000324,607.5425067000324,607.5425067000324,j,1,1.3591116999741644,608.9184796999907,,,,,,,,,,,,,,,,,,,,,,,230624_lqy,女,大学,46,001,2023-06-24_16h51.43.963,nalin_IRAP,2023.1.2,91.06804601294814,
"恭喜，你已达成80%正确率，可以继续实验

~请按空格键进入测试阶段~",高兴,"(0.0, -0.15)",j,,,,,,,,,0,0,0,0,4,21,117,12,,,,,,,,,,,,,,,,,,,,,,,,,,,,,,,,,,,,,,,,,,,,,,,,,,,,,609.427573700028,609.427573700028,609.427573700028,609.427573700028,609.427573700028,j,1,1.0580034999875352,610.5023546000011,,,,,,,,,,,,,,,,,,,,,,,230624_lqy,女,大学,46,001,2023-06-24_16h51.43.963,nalin_IRAP,2023.1.2,91.06804601294814,
"恭喜，你已达成80%正确率，可以继续实验

~请按空格键进入测试阶段~",难过,"(0.0, -0.15)",f,,,,,,,,,0,0,0,0,4,22,118,20,,,,,,,,,,,,,,,,,,,,,,,,,,,,,,,,,,,,,,,,,,,,,,,,,,,,,611.0097460999968,611.0097460999968,611.0097460999968,611.0097460999968,611.0097460999968,f,1,1.0907500999746844,612.1134924000362,612.6312171000172,,,,,,,,,,,,,,,,,,,,,,230624_lqy,女,大学,46,001,2023-06-24_16h51.43.963,nalin_IRAP,2023.1.2,91.06804601294814,
"恭喜，你已达成80%正确率，可以继续实验

~请按空格键进入测试阶段~",,,,,,,,,,,,0,0,0,0,,,,,,,,,,,,,,,,,,,,,,,,,,,,,,,,,,,,,,,,,,,,,,,,,,,,,,,,,,,,,,,,,,,,,,,,,,,,,,,,,,,,,,,,230624_lqy,女,大学,46,001,2023-06-24_16h51.43.963,nalin_IRAP,2023.1.2,91.06804601294814,
,,,,,,,,,,,,,,,,,,,,,,,,,,,,,,,,,,,,,,,,,,,,,,,,,,,,,,,,,,,,,,,,,,,,,,,,,,,,,,,,,,612.6312171000172,612.6312171000172,612.6312171000172,612.6312171000172,612.6312171000172,612.6312171000172,612.6312171000172,612.6312171000172,612.6312171000172,612.6312171000172,612.6312171000172,612.6312171000172,612.6312171000172,space,55.072679900040384,,,,,,,230624_lqy,女,大学,46,001,2023-06-24_16h51.43.963,nalin_IRAP,2023.1.2,91.06804601294814,
~请按空格键进入练习阶段~,难过,"(0.0, -0.15)",j,,,,,,,,,,,,,,,,,0,0,0,0,0,0,0,20,,,,,,,,,,,,,,,,,,,,,,,,,,,,667.7437994999927,667.7437994999927,space,1.6030507000396028,669.385747399996,669.385747399996,669.385747399996,669.385747399996,669.385747399996,f,0,2.3182916999794543,,,,,,,,,,,,,,,,,,,,,,,,,,,,,,,671.719533400028,,,,,,230624_lqy,女,大学,46,001,2023-06-24_16h51.43.963,nalin_IRAP,2023.1.2,91.06804601294814,
~请按空格键进入练习阶段~,欣喜,"(0.0, -0.15)",f,,,,,,,,,,,,,,,,,0,0,0,0,0,1,1,15,,,,,,,,,,,,,,,,,,,,,,,,,,,,,,,,672.2218652000302,672.2218652000302,672.2218652000302,672.2218652000302,672.2218652000302,f,1,4.349529099999927,,,,,,,,,,,,,,,,,,,,,,,,,,,,,,,676.5900442000129,677.0938110999996,,,,,230624_lqy,女,大学,46,001,2023-06-24_16h51.43.963,nalin_IRAP,2023.1.2,91.06804601294814,
~请按空格键进入练习阶段~,悲伤,"(0.0, 0.3)",f,,,,,,,,,,,,,,,,,0,0,0,0,0,2,2,9,,,,,,,,,,,,,,,,,,,,,,,,,,,,,,,,677.0938110999996,677.0938110999996,677.0938110999996,677.0938110999996,677.0938110999996,f,1,2.6195323999854736,,,,,,,,,,,,,,,,,,,,,,,,,,,,,,,679.730199200043,680.2349958000123,,,,,230624_lqy,女,大学,46,001,2023-06-24_16h51.43.963,nalin_IRAP,2023.1.2,91.06804601294814,
~请按空格键进入练习阶段~,高兴,"(0.0, 0.3)",j,,,,,,,,,,,,,,,,,0,0,0,0,0,3,3,0,,,,,,,,,,,,,,,,,,,,,,,,,,,,,,,,680.2349958000123,680.2349958000123,680.2349958000123,680.2349958000123,680.2349958000123,j,1,1.15111070004059,,,,,,,,,,,,,,,,,,,,,,,,,,,,,,,681.4019836999942,,,,,,230624_lqy,女,大学,46,001,2023-06-24_16h51.43.963,nalin_IRAP,2023.1.2,91.06804601294814,
~请按空格键进入练习阶段~,欣喜,"(0.0, 0.3)",j,,,,,,,,,,,,,,,,,0,0,0,0,0,4,4,3,,,,,,,,,,,,,,,,,,,,,,,,,,,,,,,,681.9096240000217,681.9096240000217,681.9096240000217,681.9096240000217,681.9096240000217,j,1,2.2931803000392392,,,,,,,,,,,,,,,,,,,,,,,,,,,,,,,684.220232599997,684.7269404000253,,,,,230624_lqy,女,大学,46,001,2023-06-24_16h51.43.963,nalin_IRAP,2023.1.2,91.06804601294814,
~请按空格键进入练习阶段~,愁苦,"(0.0, -0.15)",j,,,,,,,,,,,,,,,,,0,0,0,0,0,5,5,23,,,,,,,,,,,,,,,,,,,,,,,,,,,,,,,,684.7269404000253,684.7269404000253,684.7269404000253,684.7269404000253,684.7269404000253,j,1,2.2576231000130065,,,,,,,,,,,,,,,,,,,,,,,,,,,,,,,686.9998503000243,,,,,,230624_lqy,女,大学,46,001,2023-06-24_16h51.43.963,nalin_IRAP,2023.1.2,91.06804601294814,
~请按空格键进入练习阶段~,快乐,"(0.0, 0.3)",j,,,,,,,,,,,,,,,,,0,0,0,0,0,6,6,1,,,,,,,,,,,,,,,,,,,,,,,,,,,,,,,,687.5093585000141,687.5093585000141,687.5093585000141,687.5093585000141,687.5093585000141,f,0,1.2086677000042982,,,,,,,,,,,,,,,,,,,,,,,,,,,,,,,688.7381769000203,,,,,,230624_lqy,女,大学,46,001,2023-06-24_16h51.43.963,nalin_IRAP,2023.1.2,91.06804601294814,
~请按空格键进入练习阶段~,喜悦,"(0.0, 0.3)",j,,,,,,,,,,,,,,,,,0,0,0,0,0,7,7,4,,,,,,,,,,,,,,,,,,,,,,,,,,,,,,,,689.2431578999967,689.2431578999967,689.2431578999967,689.2431578999967,689.2431578999967,f,0,0.9201990000437945,,,,,,,,,,,,,,,,,,,,,,,,,,,,,,,690.1789271000307,690.6847766000428,,,,,230624_lqy,女,大学,46,001,2023-06-24_16h51.43.963,nalin_IRAP,2023.1.2,91.06804601294814,
~请按空格键进入练习阶段~,难过,"(0.0, 0.3)",f,,,,,,,,,,,,,,,,,0,0,0,0,0,8,8,8,,,,,,,,,,,,,,,,,,,,,,,,,,,,,,,,690.6847766000428,690.6847766000428,690.6847766000428,690.6847766000428,690.6847766000428,j,0,3.1637297000270337,,,,,,,,,,,,,,,,,,,,,,,,,,,,,,,693.8667118000449,,,,,,230624_lqy,女,大学,46,001,2023-06-24_16h51.43.963,nalin_IRAP,2023.1.2,91.06804601294814,
~请按空格键进入练习阶段~,愉快,"(0.0, 0.3)",j,,,,,,,,,,,,,,,,,0,0,0,0,0,9,9,5,,,,,,,,,,,,,,,,,,,,,,,,,,,,,,,,694.3751197000383,694.3751197000383,694.3751197000383,694.3751197000383,694.3751197000383,j,1,5.535629099991638,,,,,,,,,,,,,,,,,,,,,,,,,,,,,,,699.9227491000202,700.4257067000144,,,,,230624_lqy,女,大学,46,001,2023-06-24_16h51.43.963,nalin_IRAP,2023.1.2,91.06804601294814,
~请按空格键进入练习阶段~,失落,"(0.0, 0.3)",f,,,,,,,,,,,,,,,,,0,0,0,0,0,10,10,7,,,,,,,,,,,,,,,,,,,,,,,,,,,,,,,,700.4257067000144,700.4257067000144,700.4257067000144,700.4257067000144,700.4257067000144,f,1,2.344284199993126,,,,,,,,,,,,,,,,,,,,,,,,,,,,,,,702.7792495000176,703.2859061000054,,,,,230624_lqy,女,大学,46,001,2023-06-24_16h51.43.963,nalin_IRAP,2023.1.2,91.06804601294814,
~请按空格键进入练习阶段~,愉悦,"(0.0, 0.3)",j,,,,,,,,,,,,,,,,,0,0,0,0,0,11,11,2,,,,,,,,,,,,,,,,,,,,,,,,,,,,,,,,703.2859061000054,703.2859061000054,703.2859061000054,703.2859061000054,703.2859061000054,j,1,2.4309143000282347,,,,,,,,,,,,,,,,,,,,,,,,,,,,,,,705.7309243000345,706.2326826000353,,,,,230624_lqy,女,大学,46,001,2023-06-24_16h51.43.963,nalin_IRAP,2023.1.2,91.06804601294814,
~请按空格键进入练习阶段~,愉悦,"(0.0, -0.15)",f,,,,,,,,,,,,,,,,,0,0,0,0,0,12,12,14,,,,,,,,,,,,,,,,,,,,,,,,,,,,,,,,706.2326826000353,706.2326826000353,706.2326826000353,706.2326826000353,706.2326826000353,f,1,2.38164630002575,,,,,,,,,,,,,,,,,,,,,,,,,,,,,,,708.6246110000066,709.1270096999942,,,,,230624_lqy,女,大学,46,001,2023-06-24_16h51.43.963,nalin_IRAP,2023.1.2,91.06804601294814,
~请按空格键进入练习阶段~,失落,"(0.0, -0.15)",j,,,,,,,,,,,,,,,,,0,0,0,0,0,13,13,19,,,,,,,,,,,,,,,,,,,,,,,,,,,,,,,,709.1270096999942,709.1270096999942,709.1270096999942,709.1270096999942,709.1270096999942,j,1,1.9490522000123747,,,,,,,,,,,,,,,,,,,,,,,,,,,,,,,711.0843904000358,,,,,,230624_lqy,女,大学,46,001,2023-06-24_16h51.43.963,nalin_IRAP,2023.1.2,91.06804601294814,
~请按空格键进入练习阶段~,喜悦,"(0.0, -0.15)",f,,,,,,,,,,,,,,,,,0,0,0,0,0,14,14,16,,,,,,,,,,,,,,,,,,,,,,,,,,,,,,,,711.5939435000182,711.5939435000182,711.5939435000182,711.5939435000182,711.5939435000182,f,1,7.3059022999950685,,,,,,,,,,,,,,,,,,,,,,,,,,,,,,,718.9086750000133,,,,,,230624_lqy,女,大学,46,001,2023-06-24_16h51.43.963,nalin_IRAP,2023.1.2,91.06804601294814,
~请按空格键进入练习阶段~,忧郁,"(0.0, -0.15)",j,,,,,,,,,,,,,,,,,0,0,0,0,0,15,15,22,,,,,,,,,,,,,,,,,,,,,,,,,,,,,,,,719.4173308000318,719.4173308000318,719.4173308000318,719.4173308000318,719.4173308000318,j,1,2.359197099984158,,,,,,,,,,,,,,,,,,,,,,,,,,,,,,,721.7854414000176,,,,,,230624_lqy,女,大学,46,001,2023-06-24_16h51.43.963,nalin_IRAP,2023.1.2,91.06804601294814,
~请按空格键进入练习阶段~,愁苦,"(0.0, 0.3)",f,,,,,,,,,,,,,,,,,0,0,0,0,0,16,16,11,,,,,,,,,,,,,,,,,,,,,,,,,,,,,,,,722.2934796999907,722.2934796999907,722.2934796999907,722.2934796999907,722.2934796999907,f,1,3.2939563999534585,,,,,,,,,,,,,,,,,,,,,,,,,,,,,,,725.6002783000004,,,,,,230624_lqy,女,大学,46,001,2023-06-24_16h51.43.963,nalin_IRAP,2023.1.2,91.06804601294814,
~请按空格键进入练习阶段~,伤心,"(0.0, 0.3)",f,,,,,,,,,,,,,,,,,0,0,0,0,0,17,17,6,,,,,,,,,,,,,,,,,,,,,,,,,,,,,,,,726.108883500041,726.108883500041,726.108883500041,726.108883500041,726.108883500041,f,1,0.9658737999852747,,,,,,,,,,,,,,,,,,,,,,,,,,,,,,,727.0835743999924,,,,,,230624_lqy,女,大学,46,001,2023-06-24_16h51.43.963,nalin_IRAP,2023.1.2,91.06804601294814,
~请按空格键进入练习阶段~,伤心,"(0.0, -0.15)",j,,,,,,,,,,,,,,,,,0,0,0,0,0,18,18,18,,,,,,,,,,,,,,,,,,,,,,,,,,,,,,,,727.5889406999922,727.5889406999922,727.5889406999922,727.5889406999922,727.5889406999922,j,1,1.401979999965988,,,,,,,,,,,,,,,,,,,,,,,,,,,,,,,729.0032083000406,729.5090896000038,,,,,230624_lqy,女,大学,46,001,2023-06-24_16h51.43.963,nalin_IRAP,2023.1.2,91.06804601294814,
~请按空格键进入练习阶段~,悲伤,"(0.0, -0.15)",j,,,,,,,,,,,,,,,,,0,0,0,0,0,19,19,21,,,,,,,,,,,,,,,,,,,,,,,,,,,,,,,,729.5090896000038,729.5090896000038,729.5090896000038,729.5090896000038,729.5090896000038,j,1,0.7008746000356041,,,,,,,,,,,,,,,,,,,,,,,,,,,,,,,730.2263785999967,,,,,,230624_lqy,女,大学,46,001,2023-06-24_16h51.43.963,nalin_IRAP,2023.1.2,91.06804601294814,
~请按空格键进入练习阶段~,高兴,"(0.0, -0.15)",f,,,,,,,,,,,,,,,,,0,0,0,0,0,20,20,12,,,,,,,,,,,,,,,,,,,,,,,,,,,,,,,,730.735445600003,730.735445600003,730.735445600003,730.735445600003,730.735445600003,j,0,1.9172896000090986,,,,,,,,,,,,,,,,,,,,,,,,,,,,,,,732.6674280000152,,,,,,230624_lqy,女,大学,46,001,2023-06-24_16h51.43.963,nalin_IRAP,2023.1.2,91.06804601294814,
~请按空格键进入练习阶段~,快乐,"(0.0, -0.15)",f,,,,,,,,,,,,,,,,,0,0,0,0,0,21,21,13,,,,,,,,,,,,,,,,,,,,,,,,,,,,,,,,733.1764417000231,733.1764417000231,733.1764417000231,733.1764417000231,733.1764417000231,f,1,2.063640700012911,,,,,,,,,,,,,,,,,,,,,,,,,,,,,,,735.2612727000378,,,,,,230624_lqy,女,大学,46,001,2023-06-24_16h51.43.963,nalin_IRAP,2023.1.2,91.06804601294814,
~请按空格键进入练习阶段~,忧郁,"(0.0, 0.3)",f,,,,,,,,,,,,,,,,,0,0,0,0,0,22,22,10,,,,,,,,,,,,,,,,,,,,,,,,,,,,,,,,735.768078699999,735.768078699999,735.768078699999,735.768078699999,735.768078699999,f,1,1.6494823000393808,,,,,,,,,,,,,,,,,,,,,,,,,,,,,,,737.4364162000129,737.9422917999909,,,,,230624_lqy,女,大学,46,001,2023-06-24_16h51.43.963,nalin_IRAP,2023.1.2,91.06804601294814,
~请按空格键进入练习阶段~,愉快,"(0.0, -0.15)",f,,,,,,,,,,,,,,,,,0,0,0,0,0,23,23,17,,,,,,,,,,,,,,,,,,,,,,,,,,,,,,,,737.9422917999909,737.9422917999909,737.9422917999909,737.9422917999909,737.9422917999909,f,1,3.54112280003028,,,,,,,,,,,,,,,,,,,,,,,,,,,,,,,741.4946689000353,742.0622423000168,,,,,230624_lqy,女,大学,46,001,2023-06-24_16h51.43.963,nalin_IRAP,2023.1.2,91.06804601294814,
~请按空格键进入练习阶段~,,,,,,,,,,,,,,,,,,,,0,0,0,0,,,,,,,,,,,,,,,,,,,,,,,,,,,,,,,,,,,,,,,,,,,,,,,,,,,,,,,,,,,,,,,,,,,,,,,,,,,,,,,,230624_lqy,女,大学,46,001,2023-06-24_16h51.43.963,nalin_IRAP,2023.1.2,91.06804601294814,
"很遗憾，你未达到80%正确率

~选择继续练习，请按空格键~

~选择退出实验，请联系主试~",高兴,"(0.0, 0.3)",j,,,,,,,,,,,,,,,,,0,1,1,1,0,0,0,0,,,,,,,,,,,,,,,,,,,,,,,,,,,,742.0622423000168,742.0622423000168,space,7.893748599977698,749.9934091999894,749.9934091999894,749.9934091999894,749.9934091999894,749.9934091999894,j,1,10.656741100014187,,,,,,,,,,,,,,,,,,,,,,,,,,,,,,,760.6680280000437,,,,,,230624_lqy,女,大学,46,001,2023-06-24_16h51.43.963,nalin_IRAP,2023.1.2,91.06804601294814,
"很遗憾，你未达到80%正确率

~选择继续练习，请按空格键~

~选择退出实验，请联系主试~",,,,,,,,,,,,,,,,,,,,0,1,1,1,,,,,,,,,,,,,,,,,,,,,,,,,,,,,,,,,,,,,,,,,,,,,,,,,,,,,,,,,,,,,,,,,,,,,,,,,,,,,,,,230624_lqy,女,大学,46,001,2023-06-24_16h51.43.963,nalin_IRAP,2023.1.2,91.06804601294814,
"恭喜，你已达成80%正确率，可以继续实验

~请按空格键进入测试阶段~",失落,"(0.0, -0.15)",j,,,,,,,,,,,,,,,,,,,,,,,,,0,0,0,0,0,0,0,19,,,,,,,,,,,,,,,,,,,,,,,,,,,,,,,,,761.1853378000087,761.1853378000087,space,5.209540700016078,766.4242915000068,766.4242915000068,766.4242915000068,766.4242915000068,766.4242915000068,j,1,8.177802100020926,,,,,,,,,,,,,,,,,,,,774.6200063000433,775.126287400024,,,230624_lqy,女,大学,46,001,2023-06-24_16h51.43.963,nalin_IRAP,2023.1.2,91.06804601294814,
"恭喜，你已达成80%正确率，可以继续实验

~请按空格键进入测试阶段~",愉快,"(0.0, -0.15)",f,,,,,,,,,,,,,,,,,,,,,,,,,0,0,0,0,0,1,1,17,,,,,,,,,,,,,,,,,,,,,,,,,,,,,,,,,,,,,775.126287400024,775.126287400024,775.126287400024,775.126287400024,775.126287400024,f,1,2.02150759997312,,,,,,,,,,,,,,,,,,,,777.1651337000076,777.6685408999911,,,230624_lqy,女,大学,46,001,2023-06-24_16h51.43.963,nalin_IRAP,2023.1.2,91.06804601294814,
"恭喜，你已达成80%正确率，可以继续实验

~请按空格键进入测试阶段~",伤心,"(0.0, 0.3)",f,,,,,,,,,,,,,,,,,,,,,,,,,0,0,0,0,0,2,2,6,,,,,,,,,,,,,,,,,,,,,,,,,,,,,,,,,,,,,777.6685408999911,777.6685408999911,777.6685408999911,777.6685408999911,777.6685408999911,f,1,3.4145405999734066,,,,,,,,,,,,,,,,,,,,781.0952708999976,781.6022495999932,,,230624_lqy,女,大学,46,001,2023-06-24_16h51.43.963,nalin_IRAP,2023.1.2,91.06804601294814,
"恭喜，你已达成80%正确率，可以继续实验

~请按空格键进入测试阶段~",愉悦,"(0.0, -0.15)",f,,,,,,,,,,,,,,,,,,,,,,,,,0,0,0,0,0,3,3,14,,,,,,,,,,,,,,,,,,,,,,,,,,,,,,,,,,,,,781.6022495999932,781.6022495999932,781.6022495999932,781.6022495999932,781.6022495999932,f,1,1.642235899984371,,,,,,,,,,,,,,,,,,,,783.2598253000178,,,,230624_lqy,女,大学,46,001,2023-06-24_16h51.43.963,nalin_IRAP,2023.1.2,91.06804601294814,
"恭喜，你已达成80%正确率，可以继续实验

~请按空格键进入测试阶段~",高兴,"(0.0, 0.3)",j,,,,,,,,,,,,,,,,,,,,,,,,,0,0,0,0,0,4,4,0,,,,,,,,,,,,,,,,,,,,,,,,,,,,,,,,,,,,,783.7673667999916,783.7673667999916,783.7673667999916,783.7673667999916,783.7673667999916,j,1,1.7862206000136212,,,,,,,,,,,,,,,,,,,,785.565147700021,786.0656442000181,,,230624_lqy,女,大学,46,001,2023-06-24_16h51.43.963,nalin_IRAP,2023.1.2,91.06804601294814,
"恭喜，你已达成80%正确率，可以继续实验

~请按空格键进入测试阶段~",高兴,"(0.0, -0.15)",f,,,,,,,,,,,,,,,,,,,,,,,,,0,0,0,0,0,5,5,12,,,,,,,,,,,,,,,,,,,,,,,,,,,,,,,,,,,,,786.0656442000181,786.0656442000181,786.0656442000181,786.0656442000181,786.0656442000181,f,1,1.256499100010842,,,,,,,,,,,,,,,,,,,,787.3401015000418,787.8445893999888,,,230624_lqy,女,大学,46,001,2023-06-24_16h51.43.963,nalin_IRAP,2023.1.2,91.06804601294814,
"恭喜，你已达成80%正确率，可以继续实验

~请按空格键进入测试阶段~",快乐,"(0.0, 0.3)",j,,,,,,,,,,,,,,,,,,,,,,,,,0,0,0,0,0,6,6,1,,,,,,,,,,,,,,,,,,,,,,,,,,,,,,,,,,,,,787.8445893999888,787.8445893999888,787.8445893999888,787.8445893999888,787.8445893999888,j,1,1.9923789000022225,,,,,,,,,,,,,,,,,,,,789.8545521000051,790.3605325000244,,,230624_lqy,女,大学,46,001,2023-06-24_16h51.43.963,nalin_IRAP,2023.1.2,91.06804601294814,
"恭喜，你已达成80%正确率，可以继续实验

~请按空格键进入测试阶段~",伤心,"(0.0, -0.15)",j,,,,,,,,,,,,,,,,,,,,,,,,,0,0,0,0,0,7,7,18,,,,,,,,,,,,,,,,,,,,,,,,,,,,,,,,,,,,,790.3605325000244,790.3605325000244,790.3605325000244,790.3605325000244,790.3605325000244,j,1,1.7845930000185035,,,,,,,,,,,,,,,,,,,,792.1546012000181,792.6605795000214,,,230624_lqy,女,大学,46,001,2023-06-24_16h51.43.963,nalin_IRAP,2023.1.2,91.06804601294814,
"恭喜，你已达成80%正确率，可以继续实验

~请按空格键进入测试阶段~",喜悦,"(0.0, -0.15)",f,,,,,,,,,,,,,,,,,,,,,,,,,0,0,0,0,0,8,8,16,,,,,,,,,,,,,,,,,,,,,,,,,,,,,,,,,,,,,792.6605795000214,792.6605795000214,792.6605795000214,792.6605795000214,792.6605795000214,f,1,2.798776799987536,,,,,,,,,,,,,,,,,,,,795.468512099993,,,,230624_lqy,女,大学,46,001,2023-06-24_16h51.43.963,nalin_IRAP,2023.1.2,91.06804601294814,
"恭喜，你已达成80%正确率，可以继续实验

~请按空格键进入测试阶段~",愁苦,"(0.0, 0.3)",f,,,,,,,,,,,,,,,,,,,,,,,,,0,0,0,0,0,9,9,11,,,,,,,,,,,,,,,,,,,,,,,,,,,,,,,,,,,,,795.9750116000068,795.9750116000068,795.9750116000068,795.9750116000068,795.9750116000068,f,1,2.0347301999572664,,,,,,,,,,,,,,,,,,,,798.0213405000395,798.5267355000251,,,230624_lqy,女,大学,46,001,2023-06-24_16h51.43.963,nalin_IRAP,2023.1.2,91.06804601294814,
"恭喜，你已达成80%正确率，可以继续实验

~请按空格键进入测试阶段~",难过,"(0.0, 0.3)",f,,,,,,,,,,,,,,,,,,,,,,,,,0,0,0,0,0,10,10,8,,,,,,,,,,,,,,,,,,,,,,,,,,,,,,,,,,,,,798.5267355000251,798.5267355000251,798.5267355000251,798.5267355000251,798.5267355000251,f,1,1.018294200010132,,,,,,,,,,,,,,,,,,,,799.5533646999975,800.0602039000369,,,230624_lqy,女,大学,46,001,2023-06-24_16h51.43.963,nalin_IRAP,2023.1.2,91.06804601294814,
"恭喜，你已达成80%正确率，可以继续实验

~请按空格键进入测试阶段~",失落,"(0.0, 0.3)",f,,,,,,,,,,,,,,,,,,,,,,,,,0,0,0,0,0,11,11,7,,,,,,,,,,,,,,,,,,,,,,,,,,,,,,,,,,,,,800.0602039000369,800.0602039000369,800.0602039000369,800.0602039000369,800.0602039000369,f,1,4.260842999967281,,,,,,,,,,,,,,,,,,,,804.3391635000007,804.8426974000176,,,230624_lqy,女,大学,46,001,2023-06-24_16h51.43.963,nalin_IRAP,2023.1.2,91.06804601294814,
"恭喜，你已达成80%正确率，可以继续实验

~请按空格键进入测试阶段~",愉悦,"(0.0, 0.3)",j,,,,,,,,,,,,,,,,,,,,,,,,,0,0,0,0,0,12,12,2,,,,,,,,,,,,,,,,,,,,,,,,,,,,,,,,,,,,,804.8426974000176,804.8426974000176,804.8426974000176,804.8426974000176,804.8426974000176,j,1,1.6134912999696098,,,,,,,,,,,,,,,,,,,,806.472305000003,806.9771848000237,,,230624_lqy,女,大学,46,001,2023-06-24_16h51.43.963,nalin_IRAP,2023.1.2,91.06804601294814,
"恭喜，你已达成80%正确率，可以继续实验

~请按空格键进入测试阶段~",快乐,"(0.0, -0.15)",f,,,,,,,,,,,,,,,,,,,,,,,,,0,0,0,0,0,13,13,13,,,,,,,,,,,,,,,,,,,,,,,,,,,,,,,,,,,,,806.9771848000237,806.9771848000237,806.9771848000237,806.9771848000237,806.9771848000237,f,1,1.8536461000330746,,,,,,,,,,,,,,,,,,,,808.8441464999923,809.3517766000004,,,230624_lqy,女,大学,46,001,2023-06-24_16h51.43.963,nalin_IRAP,2023.1.2,91.06804601294814,
"恭喜，你已达成80%正确率，可以继续实验

~请按空格键进入测试阶段~",喜悦,"(0.0, 0.3)",j,,,,,,,,,,,,,,,,,,,,,,,,,0,0,0,0,0,14,14,4,,,,,,,,,,,,,,,,,,,,,,,,,,,,,,,,,,,,,809.3517766000004,809.3517766000004,809.3517766000004,809.3517766000004,809.3517766000004,j,1,2.1182638000464067,,,,,,,,,,,,,,,,,,,,811.4799327999935,811.9858357000048,,,230624_lqy,女,大学,46,001,2023-06-24_16h51.43.963,nalin_IRAP,2023.1.2,91.06804601294814,
"恭喜，你已达成80%正确率，可以继续实验

~请按空格键进入测试阶段~",忧郁,"(0.0, 0.3)",f,,,,,,,,,,,,,,,,,,,,,,,,,0,0,0,0,0,15,15,10,,,,,,,,,,,,,,,,,,,,,,,,,,,,,,,,,,,,,811.9858357000048,811.9858357000048,811.9858357000048,811.9858357000048,811.9858357000048,f,1,2.9770917000132613,,,,,,,,,,,,,,,,,,,,814.9811145000276,815.484750100004,,,230624_lqy,女,大学,46,001,2023-06-24_16h51.43.963,nalin_IRAP,2023.1.2,91.06804601294814,
"恭喜，你已达成80%正确率，可以继续实验

~请按空格键进入测试阶段~",欣喜,"(0.0, 0.3)",j,,,,,,,,,,,,,,,,,,,,,,,,,0,0,0,0,0,16,16,3,,,,,,,,,,,,,,,,,,,,,,,,,,,,,,,,,,,,,815.484750100004,815.484750100004,815.484750100004,815.484750100004,815.484750100004,j,1,1.2410015999921598,,,,,,,,,,,,,,,,,,,,816.7427414000267,,,,230624_lqy,女,大学,46,001,2023-06-24_16h51.43.963,nalin_IRAP,2023.1.2,91.06804601294814,
"恭喜，你已达成80%正确率，可以继续实验

~请按空格键进入测试阶段~",悲伤,"(0.0, 0.3)",f,,,,,,,,,,,,,,,,,,,,,,,,,0,0,0,0,0,17,17,9,,,,,,,,,,,,,,,,,,,,,,,,,,,,,,,,,,,,,817.2512726000277,817.2512726000277,817.2512726000277,817.2512726000277,817.2512726000277,f,1,1.4670916000031866,,,,,,,,,,,,,,,,,,,,818.7301578000188,819.2313783999998,,,230624_lqy,女,大学,46,001,2023-06-24_16h51.43.963,nalin_IRAP,2023.1.2,91.06804601294814,
"恭喜，你已达成80%正确率，可以继续实验

~请按空格键进入测试阶段~",悲伤,"(0.0, -0.15)",j,,,,,,,,,,,,,,,,,,,,,,,,,0,0,0,0,0,18,18,21,,,,,,,,,,,,,,,,,,,,,,,,,,,,,,,,,,,,,819.2313783999998,819.2313783999998,819.2313783999998,819.2313783999998,819.2313783999998,j,1,1.8626443999819458,,,,,,,,,,,,,,,,,,,,821.1119943000376,821.618012299994,,,230624_lqy,女,大学,46,001,2023-06-24_16h51.43.963,nalin_IRAP,2023.1.2,91.06804601294814,
"恭喜，你已达成80%正确率，可以继续实验

~请按空格键进入测试阶段~",忧郁,"(0.0, -0.15)",j,,,,,,,,,,,,,,,,,,,,,,,,,0,0,0,0,0,19,19,22,,,,,,,,,,,,,,,,,,,,,,,,,,,,,,,,,,,,,821.618012299994,821.618012299994,821.618012299994,821.618012299994,821.618012299994,j,1,10.209014199965168,,,,,,,,,,,,,,,,,,,,831.8439885000116,,,,230624_lqy,女,大学,46,001,2023-06-24_16h51.43.963,nalin_IRAP,2023.1.2,91.06804601294814,
"恭喜，你已达成80%正确率，可以继续实验

~请按空格键进入测试阶段~",愁苦,"(0.0, -0.15)",j,,,,,,,,,,,,,,,,,,,,,,,,,0,0,0,0,0,20,20,23,,,,,,,,,,,,,,,,,,,,,,,,,,,,,,,,,,,,,832.3504166000057,832.3504166000057,832.3504166000057,832.3504166000057,832.3504166000057,j,1,1.4063475000439212,,,,,,,,,,,,,,,,,,,,833.7653665000107,834.267350100039,,,230624_lqy,女,大学,46,001,2023-06-24_16h51.43.963,nalin_IRAP,2023.1.2,91.06804601294814,
"恭喜，你已达成80%正确率，可以继续实验

~请按空格键进入测试阶段~",难过,"(0.0, -0.15)",j,,,,,,,,,,,,,,,,,,,,,,,,,0,0,0,0,0,21,21,20,,,,,,,,,,,,,,,,,,,,,,,,,,,,,,,,,,,,,834.267350100039,834.267350100039,834.267350100039,834.267350100039,834.267350100039,j,1,0.9333102999953553,,,,,,,,,,,,,,,,,,,,835.2139770000358,835.7191454000422,,,230624_lqy,女,大学,46,001,2023-06-24_16h51.43.963,nalin_IRAP,2023.1.2,91.06804601294814,
"恭喜，你已达成80%正确率，可以继续实验

~请按空格键进入测试阶段~",欣喜,"(0.0, -0.15)",f,,,,,,,,,,,,,,,,,,,,,,,,,0,0,0,0,0,22,22,15,,,,,,,,,,,,,,,,,,,,,,,,,,,,,,,,,,,,,835.7191454000422,835.7191454000422,835.7191454000422,835.7191454000422,835.7191454000422,f,1,2.1139672999852337,,,,,,,,,,,,,,,,,,,,837.8514727000147,,,,230624_lqy,女,大学,46,001,2023-06-24_16h51.43.963,nalin_IRAP,2023.1.2,91.06804601294814,
"恭喜，你已达成80%正确率，可以继续实验

~请按空格键进入测试阶段~",愉快,"(0.0, 0.3)",j,,,,,,,,,,,,,,,,,,,,,,,,,0,0,0,0,0,23,23,5,,,,,,,,,,,,,,,,,,,,,,,,,,,,,,,,,,,,,838.3585485999938,838.3585485999938,838.3585485999938,838.3585485999938,838.3585485999938,j,1,1.4424934000126086,,,,,,,,,,,,,,,,,,,,839.8092559000361,840.3175564000267,,,230624_lqy,女,大学,46,001,2023-06-24_16h51.43.963,nalin_IRAP,2023.1.2,91.06804601294814,
"恭喜，你已达成80%正确率，可以继续实验

~请按空格键进入测试阶段~",悲伤,"(0.0, 0.3)",f,,,,,,,,,,,,,,,,,,,,,,,,,0,0,0,0,1,0,24,9,,,,,,,,,,,,,,,,,,,,,,,,,,,,,,,,,,,,,840.3175564000267,840.3175564000267,840.3175564000267,840.3175564000267,840.3175564000267,f,1,1.4933116000029258,,,,,,,,,,,,,,,,,,,,841.8273578000371,842.3338959999965,,,230624_lqy,女,大学,46,001,2023-06-24_16h51.43.963,nalin_IRAP,2023.1.2,91.06804601294814,
"恭喜，你已达成80%正确率，可以继续实验

~请按空格键进入测试阶段~",难过,"(0.0, 0.3)",f,,,,,,,,,,,,,,,,,,,,,,,,,0,0,0,0,1,1,25,8,,,,,,,,,,,,,,,,,,,,,,,,,,,,,,,,,,,,,842.3338959999965,842.3338959999965,842.3338959999965,842.3338959999965,842.3338959999965,f,1,2.1612273000064306,,,,,,,,,,,,,,,,,,,,844.515830999997,,,,230624_lqy,女,大学,46,001,2023-06-24_16h51.43.963,nalin_IRAP,2023.1.2,91.06804601294814,
"恭喜，你已达成80%正确率，可以继续实验

~请按空格键进入测试阶段~",快乐,"(0.0, -0.15)",f,,,,,,,,,,,,,,,,,,,,,,,,,0,0,0,0,1,2,26,13,,,,,,,,,,,,,,,,,,,,,,,,,,,,,,,,,,,,,845.0259029000299,845.0259029000299,845.0259029000299,845.0259029000299,845.0259029000299,f,1,4.192879399983212,,,,,,,,,,,,,,,,,,,,849.2277802000172,849.7349995000404,,,230624_lqy,女,大学,46,001,2023-06-24_16h51.43.963,nalin_IRAP,2023.1.2,91.06804601294814,
"恭喜，你已达成80%正确率，可以继续实验

~请按空格键进入测试阶段~",欣喜,"(0.0, -0.15)",f,,,,,,,,,,,,,,,,,,,,,,,,,0,0,0,0,1,3,27,15,,,,,,,,,,,,,,,,,,,,,,,,,,,,,,,,,,,,,849.7349995000404,849.7349995000404,849.7349995000404,849.7349995000404,849.7349995000404,f,1,1.2742461999878287,,,,,,,,,,,,,,,,,,,,851.0213360000052,851.5256967000314,,,230624_lqy,女,大学,46,001,2023-06-24_16h51.43.963,nalin_IRAP,2023.1.2,91.06804601294814,
"恭喜，你已达成80%正确率，可以继续实验

~请按空格键进入测试阶段~",高兴,"(0.0, 0.3)",j,,,,,,,,,,,,,,,,,,,,,,,,,0,0,0,0,1,4,28,0,,,,,,,,,,,,,,,,,,,,,,,,,,,,,,,,,,,,,851.5256967000314,851.5256967000314,851.5256967000314,851.5256967000314,851.5256967000314,j,1,2.5855146999820136,,,,,,,,,,,,,,,,,,,,854.1234417000087,854.6259809000185,,,230624_lqy,女,大学,46,001,2023-06-24_16h51.43.963,nalin_IRAP,2023.1.2,91.06804601294814,
"恭喜，你已达成80%正确率，可以继续实验

~请按空格键进入测试阶段~",愁苦,"(0.0, -0.15)",j,,,,,,,,,,,,,,,,,,,,,,,,,0,0,0,0,1,5,29,23,,,,,,,,,,,,,,,,,,,,,,,,,,,,,,,,,,,,,854.6259809000185,854.6259809000185,854.6259809000185,854.6259809000185,854.6259809000185,j,1,1.6358068999834359,,,,,,,,,,,,,,,,,,,,856.2717250999995,856.7762903000112,,,230624_lqy,女,大学,46,001,2023-06-24_16h51.43.963,nalin_IRAP,2023.1.2,91.06804601294814,
"恭喜，你已达成80%正确率，可以继续实验

~请按空格键进入测试阶段~",忧郁,"(0.0, 0.3)",f,,,,,,,,,,,,,,,,,,,,,,,,,0,0,0,0,1,6,30,10,,,,,,,,,,,,,,,,,,,,,,,,,,,,,,,,,,,,,856.7762903000112,856.7762903000112,856.7762903000112,856.7762903000112,856.7762903000112,f,1,2.217232300026808,,,,,,,,,,,,,,,,,,,,859.0043775000377,859.5106509000179,,,230624_lqy,女,大学,46,001,2023-06-24_16h51.43.963,nalin_IRAP,2023.1.2,91.06804601294814,
"恭喜，你已达成80%正确率，可以继续实验

~请按空格键进入测试阶段~",失落,"(0.0, -0.15)",j,,,,,,,,,,,,,,,,,,,,,,,,,0,0,0,0,1,7,31,19,,,,,,,,,,,,,,,,,,,,,,,,,,,,,,,,,,,,,859.5106509000179,859.5106509000179,859.5106509000179,859.5106509000179,859.5106509000179,j,1,4.067145999986678,,,,,,,,,,,,,,,,,,,,863.5890692000394,864.0930283000343,,,230624_lqy,女,大学,46,001,2023-06-24_16h51.43.963,nalin_IRAP,2023.1.2,91.06804601294814,
"恭喜，你已达成80%正确率，可以继续实验

~请按空格键进入测试阶段~",快乐,"(0.0, 0.3)",j,,,,,,,,,,,,,,,,,,,,,,,,,0,0,0,0,1,8,32,1,,,,,,,,,,,,,,,,,,,,,,,,,,,,,,,,,,,,,864.0930283000343,864.0930283000343,864.0930283000343,864.0930283000343,864.0930283000343,j,1,1.6016463999985717,,,,,,,,,,,,,,,,,,,,865.7070499000256,866.2087279999978,,,230624_lqy,女,大学,46,001,2023-06-24_16h51.43.963,nalin_IRAP,2023.1.2,91.06804601294814,
"恭喜，你已达成80%正确率，可以继续实验

~请按空格键进入测试阶段~",愉快,"(0.0, 0.3)",j,,,,,,,,,,,,,,,,,,,,,,,,,0,0,0,0,1,9,33,5,,,,,,,,,,,,,,,,,,,,,,,,,,,,,,,,,,,,,866.2087279999978,866.2087279999978,866.2087279999978,866.2087279999978,866.2087279999978,j,1,1.0356934000155888,,,,,,,,,,,,,,,,,,,,867.254573800019,867.7596069000429,,,230624_lqy,女,大学,46,001,2023-06-24_16h51.43.963,nalin_IRAP,2023.1.2,91.06804601294814,
"恭喜，你已达成80%正确率，可以继续实验

~请按空格键进入测试阶段~",悲伤,"(0.0, -0.15)",j,,,,,,,,,,,,,,,,,,,,,,,,,0,0,0,0,1,10,34,21,,,,,,,,,,,,,,,,,,,,,,,,,,,,,,,,,,,,,867.7596069000429,867.7596069000429,867.7596069000429,867.7596069000429,867.7596069000429,j,1,8.54039110004669,,,,,,,,,,,,,,,,,,,,876.3179486000445,,,,230624_lqy,女,大学,46,001,2023-06-24_16h51.43.963,nalin_IRAP,2023.1.2,91.06804601294814,
"恭喜，你已达成80%正确率，可以继续实验

~请按空格键进入测试阶段~",愉悦,"(0.0, 0.3)",j,,,,,,,,,,,,,,,,,,,,,,,,,0,0,0,0,1,11,35,2,,,,,,,,,,,,,,,,,,,,,,,,,,,,,,,,,,,,,876.8252536000218,876.8252536000218,876.8252536000218,876.8252536000218,876.8252536000218,j,1,7.134495600010268,,,,,,,,,,,,,,,,,,,,883.9751595000271,,,,230624_lqy,女,大学,46,001,2023-06-24_16h51.43.963,nalin_IRAP,2023.1.2,91.06804601294814,
"恭喜，你已达成80%正确率，可以继续实验

~请按空格键进入测试阶段~",失落,"(0.0, 0.3)",f,,,,,,,,,,,,,,,,,,,,,,,,,0,0,0,0,1,12,36,7,,,,,,,,,,,,,,,,,,,,,,,,,,,,,,,,,,,,,884.4845936000347,884.4845936000347,884.4845936000347,884.4845936000347,884.4845936000347,f,1,1.2996920999721624,,,,,,,,,,,,,,,,,,,,885.8024386999896,,,,230624_lqy,女,大学,46,001,2023-06-24_16h51.43.963,nalin_IRAP,2023.1.2,91.06804601294814,
"恭喜，你已达成80%正确率，可以继续实验

~请按空格键进入测试阶段~",愁苦,"(0.0, 0.3)",f,,,,,,,,,,,,,,,,,,,,,,,,,0,0,0,0,1,13,37,11,,,,,,,,,,,,,,,,,,,,,,,,,,,,,,,,,,,,,886.3084185000043,886.3084185000043,886.3084185000043,886.3084185000043,886.3084185000043,f,1,2.2716261000023223,,,,,,,,,,,,,,,,,,,,888.5900535000255,889.093718499993,,,230624_lqy,女,大学,46,001,2023-06-24_16h51.43.963,nalin_IRAP,2023.1.2,91.06804601294814,
"恭喜，你已达成80%正确率，可以继续实验

~请按空格键进入测试阶段~",喜悦,"(0.0, 0.3)",j,,,,,,,,,,,,,,,,,,,,,,,,,0,0,0,0,1,14,38,4,,,,,,,,,,,,,,,,,,,,,,,,,,,,,,,,,,,,,889.093718499993,889.093718499993,889.093718499993,889.093718499993,889.093718499993,j,1,1.1426755000138655,,,,,,,,,,,,,,,,,,,,890.2544852000428,890.7591843000264,,,230624_lqy,女,大学,46,001,2023-06-24_16h51.43.963,nalin_IRAP,2023.1.2,91.06804601294814,
"恭喜，你已达成80%正确率，可以继续实验

~请按空格键进入测试阶段~",愉快,"(0.0, -0.15)",f,,,,,,,,,,,,,,,,,,,,,,,,,0,0,0,0,1,15,39,17,,,,,,,,,,,,,,,,,,,,,,,,,,,,,,,,,,,,,890.7591843000264,890.7591843000264,890.7591843000264,890.7591843000264,890.7591843000264,f,1,1.2323626999859698,,,,,,,,,,,,,,,,,,,,892.0077590000001,,,,230624_lqy,女,大学,46,001,2023-06-24_16h51.43.963,nalin_IRAP,2023.1.2,91.06804601294814,
"恭喜，你已达成80%正确率，可以继续实验

~请按空格键进入测试阶段~",难过,"(0.0, -0.15)",j,,,,,,,,,,,,,,,,,,,,,,,,,0,0,0,0,1,16,40,20,,,,,,,,,,,,,,,,,,,,,,,,,,,,,,,,,,,,,892.5161654000403,892.5161654000403,892.5161654000403,892.5161654000403,892.5161654000403,f,0,1.9449277999810874,,,,,,,,,,,,,,,,,,,,894.476437400037,894.9837742000236,,,230624_lqy,女,大学,46,001,2023-06-24_16h51.43.963,nalin_IRAP,2023.1.2,91.06804601294814,
"恭喜，你已达成80%正确率，可以继续实验

~请按空格键进入测试阶段~",喜悦,"(0.0, -0.15)",f,,,,,,,,,,,,,,,,,,,,,,,,,0,0,0,0,1,17,41,16,,,,,,,,,,,,,,,,,,,,,,,,,,,,,,,,,,,,,894.9837742000236,894.9837742000236,894.9837742000236,894.9837742000236,894.9837742000236,f,1,3.259206999966409,,,,,,,,,,,,,,,,,,,,898.254746999999,898.758791500004,,,230624_lqy,女,大学,46,001,2023-06-24_16h51.43.963,nalin_IRAP,2023.1.2,91.06804601294814,
"恭喜，你已达成80%正确率，可以继续实验

~请按空格键进入测试阶段~",忧郁,"(0.0, -0.15)",j,,,,,,,,,,,,,,,,,,,,,,,,,0,0,0,0,1,18,42,22,,,,,,,,,,,,,,,,,,,,,,,,,,,,,,,,,,,,,898.758791500004,898.758791500004,898.758791500004,898.758791500004,898.758791500004,j,1,1.6156010000267997,,,,,,,,,,,,,,,,,,,,900.3909405000159,,,,230624_lqy,女,大学,46,001,2023-06-24_16h51.43.963,nalin_IRAP,2023.1.2,91.06804601294814,
"恭喜，你已达成80%正确率，可以继续实验

~请按空格键进入测试阶段~",愉悦,"(0.0, -0.15)",f,,,,,,,,,,,,,,,,,,,,,,,,,0,0,0,0,1,19,43,14,,,,,,,,,,,,,,,,,,,,,,,,,,,,,,,,,,,,,900.9021439999924,900.9021439999924,900.9021439999924,900.9021439999924,900.9021439999924,f,1,4.462275900004897,,,,,,,,,,,,,,,,,,,,905.3739983999985,,,,230624_lqy,女,大学,46,001,2023-06-24_16h51.43.963,nalin_IRAP,2023.1.2,91.06804601294814,
"恭喜，你已达成80%正确率，可以继续实验

~请按空格键进入测试阶段~",欣喜,"(0.0, 0.3)",j,,,,,,,,,,,,,,,,,,,,,,,,,0,0,0,0,1,20,44,3,,,,,,,,,,,,,,,,,,,,,,,,,,,,,,,,,,,,,905.8831282000174,905.8831282000174,905.8831282000174,905.8831282000174,905.8831282000174,j,1,1.3444829999934882,,,,,,,,,,,,,,,,,,,,907.2360420000041,907.7419684000197,,,230624_lqy,女,大学,46,001,2023-06-24_16h51.43.963,nalin_IRAP,2023.1.2,91.06804601294814,
"恭喜，你已达成80%正确率，可以继续实验

~请按空格键进入测试阶段~",伤心,"(0.0, 0.3)",f,,,,,,,,,,,,,,,,,,,,,,,,,0,0,0,0,1,21,45,6,,,,,,,,,,,,,,,,,,,,,,,,,,,,,,,,,,,,,907.7419684000197,907.7419684000197,907.7419684000197,907.7419684000197,907.7419684000197,f,1,1.661536999978125,,,,,,,,,,,,,,,,,,,,909.415119000012,909.9148813000065,,,230624_lqy,女,大学,46,001,2023-06-24_16h51.43.963,nalin_IRAP,2023.1.2,91.06804601294814,
"恭喜，你已达成80%正确率，可以继续实验

~请按空格键进入测试阶段~",伤心,"(0.0, -0.15)",j,,,,,,,,,,,,,,,,,,,,,,,,,0,0,0,0,1,22,46,18,,,,,,,,,,,,,,,,,,,,,,,,,,,,,,,,,,,,,909.9148813000065,909.9148813000065,909.9148813000065,909.9148813000065,909.9148813000065,j,1,2.3862656999845058,,,,,,,,,,,,,,,,,,,,912.3208008999936,912.8254227000289,,,230624_lqy,女,大学,46,001,2023-06-24_16h51.43.963,nalin_IRAP,2023.1.2,91.06804601294814,
"恭喜，你已达成80%正确率，可以继续实验

~请按空格键进入测试阶段~",高兴,"(0.0, -0.15)",f,,,,,,,,,,,,,,,,,,,,,,,,,0,0,0,0,1,23,47,12,,,,,,,,,,,,,,,,,,,,,,,,,,,,,,,,,,,,,912.8254227000289,912.8254227000289,912.8254227000289,912.8254227000289,912.8254227000289,f,1,1.323732100019697,,,,,,,,,,,,,,,,,,,,914.1577303000377,,,,230624_lqy,女,大学,46,001,2023-06-24_16h51.43.963,nalin_IRAP,2023.1.2,91.06804601294814,
"恭喜，你已达成80%正确率，可以继续实验

~请按空格键进入测试阶段~",愉快,"(0.0, 0.3)",j,,,,,,,,,,,,,,,,,,,,,,,,,0,0,0,0,2,0,48,5,,,,,,,,,,,,,,,,,,,,,,,,,,,,,,,,,,,,,914.6661263999995,914.6661263999995,914.6661263999995,914.6661263999995,914.6661263999995,j,1,4.613236100005452,,,,,,,,,,,,,,,,,,,,919.2941630000132,919.8003102000221,,,230624_lqy,女,大学,46,001,2023-06-24_16h51.43.963,nalin_IRAP,2023.1.2,91.06804601294814,
"恭喜，你已达成80%正确率，可以继续实验

~请按空格键进入测试阶段~",喜悦,"(0.0, -0.15)",f,,,,,,,,,,,,,,,,,,,,,,,,,0,0,0,0,2,1,49,16,,,,,,,,,,,,,,,,,,,,,,,,,,,,,,,,,,,,,919.8003102000221,919.8003102000221,919.8003102000221,919.8003102000221,919.8003102000221,f,1,1.9930200999951921,,,,,,,,,,,,,,,,,,,,921.8110004999908,922.3172155999928,,,230624_lqy,女,大学,46,001,2023-06-24_16h51.43.963,nalin_IRAP,2023.1.2,91.06804601294814,
"恭喜，你已达成80%正确率，可以继续实验

~请按空格键进入测试阶段~",愉快,"(0.0, -0.15)",f,,,,,,,,,,,,,,,,,,,,,,,,,0,0,0,0,2,2,50,17,,,,,,,,,,,,,,,,,,,,,,,,,,,,,,,,,,,,,922.3172155999928,922.3172155999928,922.3172155999928,922.3172155999928,922.3172155999928,f,1,1.5257240000064485,,,,,,,,,,,,,,,,,,,,923.8592712000245,,,,230624_lqy,女,大学,46,001,2023-06-24_16h51.43.963,nalin_IRAP,2023.1.2,91.06804601294814,
"恭喜，你已达成80%正确率，可以继续实验

~请按空格键进入测试阶段~",悲伤,"(0.0, -0.15)",j,,,,,,,,,,,,,,,,,,,,,,,,,0,0,0,0,2,3,51,21,,,,,,,,,,,,,,,,,,,,,,,,,,,,,,,,,,,,,924.3675359000335,924.3675359000335,924.3675359000335,924.3675359000335,924.3675359000335,j,1,2.434755100053735,,,,,,,,,,,,,,,,,,,,926.81449780002,927.3166186000453,,,230624_lqy,女,大学,46,001,2023-06-24_16h51.43.963,nalin_IRAP,2023.1.2,91.06804601294814,
"恭喜，你已达成80%正确率，可以继续实验

~请按空格键进入测试阶段~",伤心,"(0.0, 0.3)",f,,,,,,,,,,,,,,,,,,,,,,,,,0,0,0,0,2,4,52,6,,,,,,,,,,,,,,,,,,,,,,,,,,,,,,,,,,,,,927.3166186000453,927.3166186000453,927.3166186000453,927.3166186000453,927.3166186000453,f,1,1.7107173000113107,,,,,,,,,,,,,,,,,,,,929.0441777000087,929.550807600026,,,230624_lqy,女,大学,46,001,2023-06-24_16h51.43.963,nalin_IRAP,2023.1.2,91.06804601294814,
"恭喜，你已达成80%正确率，可以继续实验

~请按空格键进入测试阶段~",失落,"(0.0, 0.3)",f,,,,,,,,,,,,,,,,,,,,,,,,,0,0,0,0,2,5,53,7,,,,,,,,,,,,,,,,,,,,,,,,,,,,,,,,,,,,,929.550807600026,929.550807600026,929.550807600026,929.550807600026,929.550807600026,f,1,2.3085179000045173,,,,,,,,,,,,,,,,,,,,931.8703465000144,932.3756212000153,,,230624_lqy,女,大学,46,001,2023-06-24_16h51.43.963,nalin_IRAP,2023.1.2,91.06804601294814,
"恭喜，你已达成80%正确率，可以继续实验

~请按空格键进入测试阶段~",欣喜,"(0.0, -0.15)",f,,,,,,,,,,,,,,,,,,,,,,,,,0,0,0,0,2,6,54,15,,,,,,,,,,,,,,,,,,,,,,,,,,,,,,,,,,,,,932.3756212000153,932.3756212000153,932.3756212000153,932.3756212000153,932.3756212000153,f,1,2.069340199988801,,,,,,,,,,,,,,,,,,,,934.4586389000178,,,,230624_lqy,女,大学,46,001,2023-06-24_16h51.43.963,nalin_IRAP,2023.1.2,91.06804601294814,
"恭喜，你已达成80%正确率，可以继续实验

~请按空格键进入测试阶段~",喜悦,"(0.0, 0.3)",j,,,,,,,,,,,,,,,,,,,,,,,,,0,0,0,0,2,7,55,4,,,,,,,,,,,,,,,,,,,,,,,,,,,,,,,,,,,,,934.9675433000084,934.9675433000084,934.9675433000084,934.9675433000084,934.9675433000084,j,1,3.265464099997189,,,,,,,,,,,,,,,,,,,,938.2508588000201,,,,230624_lqy,女,大学,46,001,2023-06-24_16h51.43.963,nalin_IRAP,2023.1.2,91.06804601294814,
"恭喜，你已达成80%正确率，可以继续实验

~请按空格键进入测试阶段~",悲伤,"(0.0, 0.3)",f,,,,,,,,,,,,,,,,,,,,,,,,,0,0,0,0,2,8,56,9,,,,,,,,,,,,,,,,,,,,,,,,,,,,,,,,,,,,,938.7587267000345,938.7587267000345,938.7587267000345,938.7587267000345,938.7587267000345,f,1,5.0563350999727845,,,,,,,,,,,,,,,,,,,,943.8252182000433,,,,230624_lqy,女,大学,46,001,2023-06-24_16h51.43.963,nalin_IRAP,2023.1.2,91.06804601294814,
"恭喜，你已达成80%正确率，可以继续实验

~请按空格键进入测试阶段~",快乐,"(0.0, -0.15)",f,,,,,,,,,,,,,,,,,,,,,,,,,0,0,0,0,2,9,57,13,,,,,,,,,,,,,,,,,,,,,,,,,,,,,,,,,,,,,944.3347623000154,944.3347623000154,944.3347623000154,944.3347623000154,944.3347623000154,f,1,3.2382601000135764,,,,,,,,,,,,,,,,,,,,947.587239800021,948.0919833999942,,,230624_lqy,女,大学,46,001,2023-06-24_16h51.43.963,nalin_IRAP,2023.1.2,91.06804601294814,
"恭喜，你已达成80%正确率，可以继续实验

~请按空格键进入测试阶段~",难过,"(0.0, -0.15)",j,,,,,,,,,,,,,,,,,,,,,,,,,0,0,0,0,2,10,58,20,,,,,,,,,,,,,,,,,,,,,,,,,,,,,,,,,,,,,948.0919833999942,948.0919833999942,948.0919833999942,948.0919833999942,948.0919833999942,j,1,1.8864936000318266,,,,,,,,,,,,,,,,,,,,949.9878468000097,950.4911987000378,,,230624_lqy,女,大学,46,001,2023-06-24_16h51.43.963,nalin_IRAP,2023.1.2,91.06804601294814,
"恭喜，你已达成80%正确率，可以继续实验

~请按空格键进入测试阶段~",愁苦,"(0.0, 0.3)",f,,,,,,,,,,,,,,,,,,,,,,,,,0,0,0,0,2,11,59,11,,,,,,,,,,,,,,,,,,,,,,,,,,,,,,,,,,,,,950.4911987000378,950.4911987000378,950.4911987000378,950.4911987000378,950.4911987000378,f,1,1.319503500009887,,,,,,,,,,,,,,,,,,,,951.8229093000409,952.3247169000097,,,230624_lqy,女,大学,46,001,2023-06-24_16h51.43.963,nalin_IRAP,2023.1.2,91.06804601294814,
"恭喜，你已达成80%正确率，可以继续实验

~请按空格键进入测试阶段~",难过,"(0.0, 0.3)",f,,,,,,,,,,,,,,,,,,,,,,,,,0,0,0,0,2,12,60,8,,,,,,,,,,,,,,,,,,,,,,,,,,,,,,,,,,,,,952.3247169000097,952.3247169000097,952.3247169000097,952.3247169000097,952.3247169000097,f,1,0.923013899999205,,,,,,,,,,,,,,,,,,,,953.2634132000385,953.7671338000218,,,230624_lqy,女,大学,46,001,2023-06-24_16h51.43.963,nalin_IRAP,2023.1.2,91.06804601294814,
"恭喜，你已达成80%正确率，可以继续实验

~请按空格键进入测试阶段~",快乐,"(0.0, 0.3)",j,,,,,,,,,,,,,,,,,,,,,,,,,0,0,0,0,2,13,61,1,,,,,,,,,,,,,,,,,,,,,,,,,,,,,,,,,,,,,953.7671338000218,953.7671338000218,953.7671338000218,953.7671338000218,953.7671338000218,j,1,0.8973284999956377,,,,,,,,,,,,,,,,,,,,954.6759830000228,,,,230624_lqy,女,大学,46,001,2023-06-24_16h51.43.963,nalin_IRAP,2023.1.2,91.06804601294814,
"恭喜，你已达成80%正确率，可以继续实验

~请按空格键进入测试阶段~",愉悦,"(0.0, -0.15)",f,,,,,,,,,,,,,,,,,,,,,,,,,0,0,0,0,2,14,62,14,,,,,,,,,,,,,,,,,,,,,,,,,,,,,,,,,,,,,955.1844974000123,955.1844974000123,955.1844974000123,955.1844974000123,955.1844974000123,f,1,1.39339199999813,,,,,,,,,,,,,,,,,,,,956.5963802000042,957.101106600021,,,230624_lqy,女,大学,46,001,2023-06-24_16h51.43.963,nalin_IRAP,2023.1.2,91.06804601294814,
"恭喜，你已达成80%正确率，可以继续实验

~请按空格键进入测试阶段~",失落,"(0.0, -0.15)",j,,,,,,,,,,,,,,,,,,,,,,,,,0,0,0,0,2,15,63,19,,,,,,,,,,,,,,,,,,,,,,,,,,,,,,,,,,,,,957.101106600021,957.101106600021,957.101106600021,957.101106600021,957.101106600021,j,1,3.4251196999684907,,,,,,,,,,,,,,,,,,,,960.543501200038,961.0510085000424,,,230624_lqy,女,大学,46,001,2023-06-24_16h51.43.963,nalin_IRAP,2023.1.2,91.06804601294814,
"恭喜，你已达成80%正确率，可以继续实验

~请按空格键进入测试阶段~",伤心,"(0.0, -0.15)",j,,,,,,,,,,,,,,,,,,,,,,,,,0,0,0,0,2,16,64,18,,,,,,,,,,,,,,,,,,,,,,,,,,,,,,,,,,,,,961.0510085000424,961.0510085000424,961.0510085000424,961.0510085000424,961.0510085000424,j,1,0.8933611999964342,,,,,,,,,,,,,,,,,,,,961.9542608000338,962.4590491999988,,,230624_lqy,女,大学,46,001,2023-06-24_16h51.43.963,nalin_IRAP,2023.1.2,91.06804601294814,
"恭喜，你已达成80%正确率，可以继续实验

~请按空格键进入测试阶段~",愁苦,"(0.0, -0.15)",j,,,,,,,,,,,,,,,,,,,,,,,,,0,0,0,0,2,17,65,23,,,,,,,,,,,,,,,,,,,,,,,,,,,,,,,,,,,,,962.4590491999988,962.4590491999988,962.4590491999988,962.4590491999988,962.4590491999988,j,1,0.8144345000036992,,,,,,,,,,,,,,,,,,,,963.2830863000127,,,,230624_lqy,女,大学,46,001,2023-06-24_16h51.43.963,nalin_IRAP,2023.1.2,91.06804601294814,
"恭喜，你已达成80%正确率，可以继续实验

~请按空格键进入测试阶段~",欣喜,"(0.0, 0.3)",j,,,,,,,,,,,,,,,,,,,,,,,,,0,0,0,0,2,18,66,3,,,,,,,,,,,,,,,,,,,,,,,,,,,,,,,,,,,,,963.792293000035,963.792293000035,963.792293000035,963.792293000035,963.792293000035,j,1,3.5218630000017583,,,,,,,,,,,,,,,,,,,,967.3318667000276,,,,230624_lqy,女,大学,46,001,2023-06-24_16h51.43.963,nalin_IRAP,2023.1.2,91.06804601294814,
"恭喜，你已达成80%正确率，可以继续实验

~请按空格键进入测试阶段~",忧郁,"(0.0, 0.3)",f,,,,,,,,,,,,,,,,,,,,,,,,,0,0,0,0,2,19,67,10,,,,,,,,,,,,,,,,,,,,,,,,,,,,,,,,,,,,,967.8413413999951,967.8413413999951,967.8413413999951,967.8413413999951,967.8413413999951,f,1,4.253024200035725,,,,,,,,,,,,,,,,,,,,972.1036173999892,972.6092845000094,,,230624_lqy,女,大学,46,001,2023-06-24_16h51.43.963,nalin_IRAP,2023.1.2,91.06804601294814,
"恭喜，你已达成80%正确率，可以继续实验

~请按空格键进入测试阶段~",愉悦,"(0.0, 0.3)",j,,,,,,,,,,,,,,,,,,,,,,,,,0,0,0,0,2,20,68,2,,,,,,,,,,,,,,,,,,,,,,,,,,,,,,,,,,,,,972.6092845000094,972.6092845000094,972.6092845000094,972.6092845000094,972.6092845000094,j,1,2.7656754000345245,,,,,,,,,,,,,,,,,,,,975.388806700008,975.8935940000229,,,230624_lqy,女,大学,46,001,2023-06-24_16h51.43.963,nalin_IRAP,2023.1.2,91.06804601294814,
"恭喜，你已达成80%正确率，可以继续实验

~请按空格键进入测试阶段~",高兴,"(0.0, -0.15)",f,,,,,,,,,,,,,,,,,,,,,,,,,0,0,0,0,2,21,69,12,,,,,,,,,,,,,,,,,,,,,,,,,,,,,,,,,,,,,975.8935940000229,975.8935940000229,975.8935940000229,975.8935940000229,975.8935940000229,f,1,6.274521899991669,,,,,,,,,,,,,,,,,,,,982.1857352000079,982.6896620999905,,,230624_lqy,女,大学,46,001,2023-06-24_16h51.43.963,nalin_IRAP,2023.1.2,91.06804601294814,
"恭喜，你已达成80%正确率，可以继续实验

~请按空格键进入测试阶段~",高兴,"(0.0, 0.3)",j,,,,,,,,,,,,,,,,,,,,,,,,,0,0,0,0,2,22,70,0,,,,,,,,,,,,,,,,,,,,,,,,,,,,,,,,,,,,,982.6896620999905,982.6896620999905,982.6896620999905,982.6896620999905,982.6896620999905,j,1,9.464883900014684,,,,,,,,,,,,,,,,,,,,992.1716605999973,992.6760244999896,,,230624_lqy,女,大学,46,001,2023-06-24_16h51.43.963,nalin_IRAP,2023.1.2,91.06804601294814,
"恭喜，你已达成80%正确率，可以继续实验

~请按空格键进入测试阶段~",忧郁,"(0.0, -0.15)",j,,,,,,,,,,,,,,,,,,,,,,,,,0,0,0,0,2,23,71,22,,,,,,,,,,,,,,,,,,,,,,,,,,,,,,,,,,,,,992.6760244999896,992.6760244999896,992.6760244999896,992.6760244999896,992.6760244999896,j,1,1.9486181000247598,,,,,,,,,,,,,,,,,,,,994.6358875000151,995.1414209000068,,,230624_lqy,女,大学,46,001,2023-06-24_16h51.43.963,nalin_IRAP,2023.1.2,91.06804601294814,
"恭喜，你已达成80%正确率，可以继续实验

~请按空格键进入测试阶段~",愉快,"(0.0, 0.3)",j,,,,,,,,,,,,,,,,,,,,,,,,,0,0,0,0,3,0,72,5,,,,,,,,,,,,,,,,,,,,,,,,,,,,,,,,,,,,,995.1414209000068,995.1414209000068,995.1414209000068,995.1414209000068,995.1414209000068,j,1,5.455736799980514,,,,,,,,,,,,,,,,,,,,1000.610543399991,1001.1175828000414,,,230624_lqy,女,大学,46,001,2023-06-24_16h51.43.963,nalin_IRAP,2023.1.2,91.06804601294814,
"恭喜，你已达成80%正确率，可以继续实验

~请按空格键进入测试阶段~",愁苦,"(0.0, -0.15)",j,,,,,,,,,,,,,,,,,,,,,,,,,0,0,0,0,3,1,73,23,,,,,,,,,,,,,,,,,,,,,,,,,,,,,,,,,,,,,1001.1175828000414,1001.1175828000414,1001.1175828000414,1001.1175828000414,1001.1175828000414,j,1,1.5987005999777466,,,,,,,,,,,,,,,,,,,,1002.7314825000358,1003.2351449000416,,,230624_lqy,女,大学,46,001,2023-06-24_16h51.43.963,nalin_IRAP,2023.1.2,91.06804601294814,
"恭喜，你已达成80%正确率，可以继续实验

~请按空格键进入测试阶段~",快乐,"(0.0, 0.3)",j,,,,,,,,,,,,,,,,,,,,,,,,,0,0,0,0,3,2,74,1,,,,,,,,,,,,,,,,,,,,,,,,,,,,,,,,,,,,,1003.2351449000416,1003.2351449000416,1003.2351449000416,1003.2351449000416,1003.2351449000416,j,1,0.9776404000003822,,,,,,,,,,,,,,,,,,,,1004.2254757999908,,,,230624_lqy,女,大学,46,001,2023-06-24_16h51.43.963,nalin_IRAP,2023.1.2,91.06804601294814,
"恭喜，你已达成80%正确率，可以继续实验

~请按空格键进入测试阶段~",愉悦,"(0.0, 0.3)",j,,,,,,,,,,,,,,,,,,,,,,,,,0,0,0,0,3,3,75,2,,,,,,,,,,,,,,,,,,,,,,,,,,,,,,,,,,,,,1004.7338724000147,1004.7338724000147,1004.7338724000147,1004.7338724000147,1004.7338724000147,j,1,0.8594133000005968,,,,,,,,,,,,,,,,,,,,1005.6111812000163,1006.1180839000153,,,230624_lqy,女,大学,46,001,2023-06-24_16h51.43.963,nalin_IRAP,2023.1.2,91.06804601294814,
"恭喜，你已达成80%正确率，可以继续实验

~请按空格键进入测试阶段~",悲伤,"(0.0, 0.3)",f,,,,,,,,,,,,,,,,,,,,,,,,,0,0,0,0,3,4,76,9,,,,,,,,,,,,,,,,,,,,,,,,,,,,,,,,,,,,,1006.1180839000153,1006.1180839000153,1006.1180839000153,1006.1180839000153,1006.1180839000153,f,1,1.4097581999958493,,,,,,,,,,,,,,,,,,,,1007.5363335000002,1008.0423727000016,,,230624_lqy,女,大学,46,001,2023-06-24_16h51.43.963,nalin_IRAP,2023.1.2,91.06804601294814,
"恭喜，你已达成80%正确率，可以继续实验

~请按空格键进入测试阶段~",欣喜,"(0.0, -0.15)",f,,,,,,,,,,,,,,,,,,,,,,,,,0,0,0,0,3,5,77,15,,,,,,,,,,,,,,,,,,,,,,,,,,,,,,,,,,,,,1008.0423727000016,1008.0423727000016,1008.0423727000016,1008.0423727000016,1008.0423727000016,f,1,1.64655770000536,,,,,,,,,,,,,,,,,,,,1009.7030838000355,1010.2103960000095,,,230624_lqy,女,大学,46,001,2023-06-24_16h51.43.963,nalin_IRAP,2023.1.2,91.06804601294814,
"恭喜，你已达成80%正确率，可以继续实验

~请按空格键进入测试阶段~",失落,"(0.0, 0.3)",f,,,,,,,,,,,,,,,,,,,,,,,,,0,0,0,0,3,6,78,7,,,,,,,,,,,,,,,,,,,,,,,,,,,,,,,,,,,,,1010.2103960000095,1010.2103960000095,1010.2103960000095,1010.2103960000095,1010.2103960000095,f,1,1.630752700031735,,,,,,,,,,,,,,,,,,,,1011.8585027999943,,,,230624_lqy,女,大学,46,001,2023-06-24_16h51.43.963,nalin_IRAP,2023.1.2,91.06804601294814,
"恭喜，你已达成80%正确率，可以继续实验

~请按空格键进入测试阶段~",高兴,"(0.0, -0.15)",f,,,,,,,,,,,,,,,,,,,,,,,,,0,0,0,0,3,7,79,12,,,,,,,,,,,,,,,,,,,,,,,,,,,,,,,,,,,,,1012.3669253000407,1012.3669253000407,1012.3669253000407,1012.3669253000407,1012.3669253000407,f,1,1.2776026000501588,,,,,,,,,,,,,,,,,,,,1013.6634664000012,1014.1673994000303,,,230624_lqy,女,大学,46,001,2023-06-24_16h51.43.963,nalin_IRAP,2023.1.2,91.06804601294814,
"恭喜，你已达成80%正确率，可以继续实验

~请按空格键进入测试阶段~",伤心,"(0.0, -0.15)",j,,,,,,,,,,,,,,,,,,,,,,,,,0,0,0,0,3,8,80,18,,,,,,,,,,,,,,,,,,,,,,,,,,,,,,,,,,,,,1014.1673994000303,1014.1673994000303,1014.1673994000303,1014.1673994000303,1014.1673994000303,j,1,1.4459246000042185,,,,,,,,,,,,,,,,,,,,1015.6290098000318,1016.133818900038,,,230624_lqy,女,大学,46,001,2023-06-24_16h51.43.963,nalin_IRAP,2023.1.2,91.06804601294814,
"恭喜，你已达成80%正确率，可以继续实验

~请按空格键进入测试阶段~",喜悦,"(0.0, -0.15)",f,,,,,,,,,,,,,,,,,,,,,,,,,0,0,0,0,3,9,81,16,,,,,,,,,,,,,,,,,,,,,,,,,,,,,,,,,,,,,1016.133818900038,1016.133818900038,1016.133818900038,1016.133818900038,1016.133818900038,f,1,1.9097984999534674,,,,,,,,,,,,,,,,,,,,1018.0607313000364,1018.566853300028,,,230624_lqy,女,大学,46,001,2023-06-24_16h51.43.963,nalin_IRAP,2023.1.2,91.06804601294814,
"恭喜，你已达成80%正确率，可以继续实验

~请按空格键进入测试阶段~",快乐,"(0.0, -0.15)",f,,,,,,,,,,,,,,,,,,,,,,,,,0,0,0,0,3,10,82,13,,,,,,,,,,,,,,,,,,,,,,,,,,,,,,,,,,,,,1018.566853300028,1018.566853300028,1018.566853300028,1018.566853300028,1018.566853300028,f,1,1.6929365000105463,,,,,,,,,,,,,,,,,,,,1020.2680801000097,1020.7757130000391,,,230624_lqy,女,大学,46,001,2023-06-24_16h51.43.963,nalin_IRAP,2023.1.2,91.06804601294814,
"恭喜，你已达成80%正确率，可以继续实验

~请按空格键进入测试阶段~",愉快,"(0.0, -0.15)",f,,,,,,,,,,,,,,,,,,,,,,,,,0,0,0,0,3,11,83,17,,,,,,,,,,,,,,,,,,,,,,,,,,,,,,,,,,,,,1020.7757130000391,1020.7757130000391,1020.7757130000391,1020.7757130000391,1020.7757130000391,f,1,1.157275799952913,,,,,,,,,,,,,,,,,,,,1021.94529589999,1022.451040600019,,,230624_lqy,女,大学,46,001,2023-06-24_16h51.43.963,nalin_IRAP,2023.1.2,91.06804601294814,
"恭喜，你已达成80%正确率，可以继续实验

~请按空格键进入测试阶段~",愉悦,"(0.0, -0.15)",f,,,,,,,,,,,,,,,,,,,,,,,,,0,0,0,0,3,12,84,14,,,,,,,,,,,,,,,,,,,,,,,,,,,,,,,,,,,,,1022.451040600019,1022.451040600019,1022.451040600019,1022.451040600019,1022.451040600019,f,1,1.3240465000271797,,,,,,,,,,,,,,,,,,,,1023.7864147000364,1024.2938010999933,,,230624_lqy,女,大学,46,001,2023-06-24_16h51.43.963,nalin_IRAP,2023.1.2,91.06804601294814,
"恭喜，你已达成80%正确率，可以继续实验

~请按空格键进入测试阶段~",高兴,"(0.0, 0.3)",j,,,,,,,,,,,,,,,,,,,,,,,,,0,0,0,0,3,13,85,0,,,,,,,,,,,,,,,,,,,,,,,,,,,,,,,,,,,,,1024.2938010999933,1024.2938010999933,1024.2938010999933,1024.2938010999933,1024.2938010999933,j,1,1.7244790000258945,,,,,,,,,,,,,,,,,,,,1026.0286302000168,1026.534985300037,,,230624_lqy,女,大学,46,001,2023-06-24_16h51.43.963,nalin_IRAP,2023.1.2,91.06804601294814,
