instr_text,textStim,textStimPos,correKey,LearnC_repeatIF.thisRepN,LearnC_repeatIF.thisTrialN,LearnC_repeatIF.thisN,LearnC_repeatIF.thisIndex,Learn_com_24x1.thisRepN,Learn_com_24x1.thisTrialN,Learn_com_24x1.thisN,Learn_com_24x1.thisIndex,TestC_repeatIF.thisRepN,TestC_repeatIF.thisTrialN,TestC_repeatIF.thisN,TestC_repeatIF.thisIndex,Test_com_24x6.thisRepN,Test_com_24x6.thisTrialN,Test_com_24x6.thisN,Test_com_24x6.thisIndex,LearnI_repeatIF.thisRepN,LearnI_repeatIF.thisTrialN,LearnI_repeatIF.thisN,LearnI_repeatIF.thisIndex,Learn_incom_24x1.thisRepN,Learn_incom_24x1.thisTrialN,Learn_incom_24x1.thisN,Learn_incom_24x1.thisIndex,TestI_repeatIF.thisRepN,TestI_repeatIF.thisTrialN,TestI_repeatIF.thisN,TestI_repeatIF.thisIndex,Test_incom_24x6.thisRepN,Test_incom_24x6.thisTrialN,Test_incom_24x6.thisN,Test_incom_24x6.thisIndex,instr_start.started,key_start.started,key_start.keys,key_start.rt,instr_above.started,Stim_R.started,lines_R.started,note1_R.started,note2_R.started,instr_R.started,Stim_L.started,lines_L.started,note1_L.started,note2_L.started,instr_L.started,key_continue.started,instr_contin.started,key_continue.keys,key_continue.rt,instr_ask.started,ask_learn.started,ask_learn.keys,ask_learn.rt,Stim_learn.started,lines_learn.started,note1_learn.started,note2_learn.started,Resp_learn.started,Resp_learn.keys,Resp_learn.corr,Resp_learn.rt,text_judge.started,text_judge.stopped,congra_ask.started,ask_test.started,ask_test.keys,ask_test.rt,Stim.started,lines.started,note2.started,note1.started,key_resp.started,key_resp.keys,key_resp.corr,key_resp.rt,text_fb.started,text_fb.stopped,above_instr.started,R_stim.started,R_lines.started,R_note1.started,R_note2.started,R_instr.started,L_stim.started,L_lines.started,L_note1.started,L_note2.started,L_instr.started,continue_key.started,contin_instr.started,continue_key.keys,continue_key.rt,text_jd2.started,text_jd2.stopped,text_fb2.started,text_fb2.stopped,text_end.started,text_end.stopped,participant,gender,education,age,session,date,expName,psychopyVersion,frameRate,
,,,,,,,,,,,,,,,,,,,,,,,,,,,,,,,,,,,,30.544148800021503,30.544148800021503,space,11.088783599960152,,,,,,,,,,,,,,,,,,,,,,,,,,,,,,,,,,,,,,,,,,,,,,,,,,,,,,,,,,,,,,,,,230624_lax,女,小学,8,001,2023-06-24_16h22.26.389,nalin_IRAP,2023.1.2,119.9656418857924,
,,,,,,,,,,,,,,,,,,,,,,,,,,,,,,,,,,,,,,,,41.6589629999944,41.6589629999944,41.6589629999944,41.6589629999944,41.6589629999944,41.6589629999944,41.6589629999944,41.6589629999944,41.6589629999944,41.6589629999944,41.6589629999944,41.6589629999944,41.6589629999944,space,59.15029179997509,,,,,,,,,,,,,,,,,,,,,,,,,,,,,,,,,,,,,,,,,,,,,,,,,,230624_lax,女,小学,8,001,2023-06-24_16h22.26.389,nalin_IRAP,2023.1.2,119.9656418857924,
~请按空格键进入练习阶段~,忧郁,"(0.0, -0.15)",f,0,0,0,0,0,0,0,22,,,,,,,,,,,,,,,,,,,,,,,,,,,,,,,,,,,,,,,,,,,,100.84045120002702,100.84045120002702,space,5.391454799973872,106.26450350001687,106.26450350001687,106.26450350001687,106.26450350001687,106.26450350001687,f,1,12.294000299996696,118.57194049999816,,,,,,,,,,,,,,,,,,,,,,,,,,,,,,,,,,,,,230624_lax,女,小学,8,001,2023-06-24_16h22.26.389,nalin_IRAP,2023.1.2,119.9656418857924,
~请按空格键进入练习阶段~,愉快,"(0.0, 0.3)",f,0,0,0,0,0,1,1,5,,,,,,,,,,,,,,,,,,,,,,,,,,,,,,,,,,,,,,,,,,,,,,,,119.07857100002002,119.07857100002002,119.07857100002002,119.07857100002002,119.07857100002002,f,1,4.623331899987534,123.71804170001997,,,,,,,,,,,,,,,,,,,,,,,,,,,,,,,,,,,,,230624_lax,女,小学,8,001,2023-06-24_16h22.26.389,nalin_IRAP,2023.1.2,119.9656418857924,
~请按空格键进入练习阶段~,伤心,"(0.0, 0.3)",j,0,0,0,0,0,2,2,6,,,,,,,,,,,,,,,,,,,,,,,,,,,,,,,,,,,,,,,,,,,,,,,,124.23045670002466,124.23045670002466,124.23045670002466,124.23045670002466,124.23045670002466,j,1,2.9139423000160605,127.15976569999475,,,,,,,,,,,,,,,,,,,,,,,,,,,,,,,,,,,,,230624_lax,女,小学,8,001,2023-06-24_16h22.26.389,nalin_IRAP,2023.1.2,119.9656418857924,
~请按空格键进入练习阶段~,高兴,"(0.0, 0.3)",f,0,0,0,0,0,3,3,0,,,,,,,,,,,,,,,,,,,,,,,,,,,,,,,,,,,,,,,,,,,,,,,,127.66961420001462,127.66961420001462,127.66961420001462,127.66961420001462,127.66961420001462,f,1,2.052240199991502,129.73500490002334,,,,,,,,,,,,,,,,,,,,,,,,,,,,,,,,,,,,,230624_lax,女,小学,8,001,2023-06-24_16h22.26.389,nalin_IRAP,2023.1.2,119.9656418857924,
~请按空格键进入练习阶段~,伤心,"(0.0, -0.15)",f,0,0,0,0,0,4,4,18,,,,,,,,,,,,,,,,,,,,,,,,,,,,,,,,,,,,,,,,,,,,,,,,130.2419888000004,130.2419888000004,130.2419888000004,130.2419888000004,130.2419888000004,j,0,2.2001783999730833,132.4608220999944,,,,,,,,,,,,,,,,,,,,,,,,,,,,,,,,,,,,,230624_lax,女,小学,8,001,2023-06-24_16h22.26.389,nalin_IRAP,2023.1.2,119.9656418857924,
~请按空格键进入练习阶段~,愁苦,"(0.0, 0.3)",j,0,0,0,0,0,5,5,11,,,,,,,,,,,,,,,,,,,,,,,,,,,,,,,,,,,,,,,,,,,,,,,,132.9736494999961,132.9736494999961,132.9736494999961,132.9736494999961,132.9736494999961,j,1,8.341151800006628,141.333971199987,,,,,,,,,,,,,,,,,,,,,,,,,,,,,,,,,,,,,230624_lax,女,小学,8,001,2023-06-24_16h22.26.389,nalin_IRAP,2023.1.2,119.9656418857924,
~请按空格键进入练习阶段~,快乐,"(0.0, 0.3)",f,0,0,0,0,0,6,6,1,,,,,,,,,,,,,,,,,,,,,,,,,,,,,,,,,,,,,,,,,,,,,,,,141.84478330001002,141.84478330001002,141.84478330001002,141.84478330001002,141.84478330001002,f,1,2.3015258999657817,144.16244540002663,,,,,,,,,,,,,,,,,,,,,,,,,,,,,,,,,,,,,230624_lax,女,小学,8,001,2023-06-24_16h22.26.389,nalin_IRAP,2023.1.2,119.9656418857924,
~请按空格键进入练习阶段~,欣喜,"(0.0, 0.3)",f,0,0,0,0,0,7,7,3,,,,,,,,,,,,,,,,,,,,,,,,,,,,,,,,,,,,,,,,,,,,,,,,144.67071039997973,144.67071039997973,144.67071039997973,144.67071039997973,144.67071039997973,f,1,2.5734880000236444,147.25953829998616,,,,,,,,,,,,,,,,,,,,,,,,,,,,,,,,,,,,,230624_lax,女,小学,8,001,2023-06-24_16h22.26.389,nalin_IRAP,2023.1.2,119.9656418857924,
~请按空格键进入练习阶段~,难过,"(0.0, 0.3)",j,0,0,0,0,0,8,8,8,,,,,,,,,,,,,,,,,,,,,,,,,,,,,,,,,,,,,,,,,,,,,,,,147.77147849998437,147.77147849998437,147.77147849998437,147.77147849998437,147.77147849998437,j,1,2.950940400012769,150.73798219999298,151.24274730001343,,,,,,,,,,,,,,,,,,,,,,,,,,,,,,,,,,,,230624_lax,女,小学,8,001,2023-06-24_16h22.26.389,nalin_IRAP,2023.1.2,119.9656418857924,
~请按空格键进入练习阶段~,愁苦,"(0.0, -0.15)",f,0,0,0,0,0,9,9,23,,,,,,,,,,,,,,,,,,,,,,,,,,,,,,,,,,,,,,,,,,,,,,,,151.24274730001343,151.24274730001343,151.24274730001343,151.24274730001343,151.24274730001343,f,1,3.329130099969916,154.58121999999275,155.0848184999777,,,,,,,,,,,,,,,,,,,,,,,,,,,,,,,,,,,,230624_lax,女,小学,8,001,2023-06-24_16h22.26.389,nalin_IRAP,2023.1.2,119.9656418857924,
~请按空格键进入练习阶段~,高兴,"(0.0, -0.15)",j,0,0,0,0,0,10,10,12,,,,,,,,,,,,,,,,,,,,,,,,,,,,,,,,,,,,,,,,,,,,,,,,155.0848184999777,155.0848184999777,155.0848184999777,155.0848184999777,155.0848184999777,j,1,3.1605803000275046,158.25940450001508,,,,,,,,,,,,,,,,,,,,,,,,,,,,,,,,,,,,,230624_lax,女,小学,8,001,2023-06-24_16h22.26.389,nalin_IRAP,2023.1.2,119.9656418857924,
~请按空格键进入练习阶段~,失落,"(0.0, 0.3)",j,0,0,0,0,0,11,11,7,,,,,,,,,,,,,,,,,,,,,,,,,,,,,,,,,,,,,,,,,,,,,,,,158.77235819998896,158.77235819998896,158.77235819998896,158.77235819998896,158.77235819998896,j,1,3.4631588000338525,162.2512551000109,,,,,,,,,,,,,,,,,,,,,,,,,,,,,,,,,,,,,230624_lax,女,小学,8,001,2023-06-24_16h22.26.389,nalin_IRAP,2023.1.2,119.9656418857924,
~请按空格键进入练习阶段~,忧郁,"(0.0, 0.3)",j,0,0,0,0,0,12,12,10,,,,,,,,,,,,,,,,,,,,,,,,,,,,,,,,,,,,,,,,,,,,,,,,162.76169269997627,162.76169269997627,162.76169269997627,162.76169269997627,162.76169269997627,j,1,2.1401188999880105,164.91498300002422,,,,,,,,,,,,,,,,,,,,,,,,,,,,,,,,,,,,,230624_lax,女,小学,8,001,2023-06-24_16h22.26.389,nalin_IRAP,2023.1.2,119.9656418857924,
~请按空格键进入练习阶段~,喜悦,"(0.0, -0.15)",j,0,0,0,0,0,13,13,16,,,,,,,,,,,,,,,,,,,,,,,,,,,,,,,,,,,,,,,,,,,,,,,,165.43055460002506,165.43055460002506,165.43055460002506,165.43055460002506,165.43055460002506,j,1,2.581196599989198,168.0235189999803,,,,,,,,,,,,,,,,,,,,,,,,,,,,,,,,,,,,,230624_lax,女,小学,8,001,2023-06-24_16h22.26.389,nalin_IRAP,2023.1.2,119.9656418857924,
~请按空格键进入练习阶段~,愉快,"(0.0, -0.15)",j,0,0,0,0,0,14,14,17,,,,,,,,,,,,,,,,,,,,,,,,,,,,,,,,,,,,,,,,,,,,,,,,168.5345858000219,168.5345858000219,168.5345858000219,168.5345858000219,168.5345858000219,j,1,3.6848817000281997,172.229118200019,172.73817409999901,,,,,,,,,,,,,,,,,,,,,,,,,,,,,,,,,,,,230624_lax,女,小学,8,001,2023-06-24_16h22.26.389,nalin_IRAP,2023.1.2,119.9656418857924,
~请按空格键进入练习阶段~,悲伤,"(0.0, -0.15)",f,0,0,0,0,0,15,15,21,,,,,,,,,,,,,,,,,,,,,,,,,,,,,,,,,,,,,,,,,,,,,,,,172.73817409999901,172.73817409999901,172.73817409999901,172.73817409999901,172.73817409999901,f,1,2.657845899986569,175.4134998000227,175.9191395000089,,,,,,,,,,,,,,,,,,,,,,,,,,,,,,,,,,,,230624_lax,女,小学,8,001,2023-06-24_16h22.26.389,nalin_IRAP,2023.1.2,119.9656418857924,
~请按空格键进入练习阶段~,喜悦,"(0.0, 0.3)",f,0,0,0,0,0,16,16,4,,,,,,,,,,,,,,,,,,,,,,,,,,,,,,,,,,,,,,,,,,,,,,,,175.9191395000089,175.9191395000089,175.9191395000089,175.9191395000089,175.9191395000089,f,1,2.087961399985943,178.01537360000657,,,,,,,,,,,,,,,,,,,,,,,,,,,,,,,,,,,,,230624_lax,女,小学,8,001,2023-06-24_16h22.26.389,nalin_IRAP,2023.1.2,119.9656418857924,
~请按空格键进入练习阶段~,悲伤,"(0.0, 0.3)",j,0,0,0,0,0,17,17,9,,,,,,,,,,,,,,,,,,,,,,,,,,,,,,,,,,,,,,,,,,,,,,,,178.5324721999932,178.5324721999932,178.5324721999932,178.5324721999932,178.5324721999932,j,1,1.9145141000044532,180.46177340002032,180.96881859999849,,,,,,,,,,,,,,,,,,,,,,,,,,,,,,,,,,,,230624_lax,女,小学,8,001,2023-06-24_16h22.26.389,nalin_IRAP,2023.1.2,119.9656418857924,
~请按空格键进入练习阶段~,愉悦,"(0.0, -0.15)",j,0,0,0,0,0,18,18,14,,,,,,,,,,,,,,,,,,,,,,,,,,,,,,,,,,,,,,,,,,,,,,,,180.96881859999849,180.96881859999849,180.96881859999849,180.96881859999849,180.96881859999849,f,0,4.654581300041173,185.6374369999976,,,,,,,,,,,,,,,,,,,,,,,,,,,,,,,,,,,,,230624_lax,女,小学,8,001,2023-06-24_16h22.26.389,nalin_IRAP,2023.1.2,119.9656418857924,
~请按空格键进入练习阶段~,愉悦,"(0.0, 0.3)",f,0,0,0,0,0,19,19,2,,,,,,,,,,,,,,,,,,,,,,,,,,,,,,,,,,,,,,,,,,,,,,,,186.1401986000128,186.1401986000128,186.1401986000128,186.1401986000128,186.1401986000128,f,1,9.181449499970768,195.33952769997995,195.84300699998857,,,,,,,,,,,,,,,,,,,,,,,,,,,,,,,,,,,,230624_lax,女,小学,8,001,2023-06-24_16h22.26.389,nalin_IRAP,2023.1.2,119.9656418857924,
~请按空格键进入练习阶段~,难过,"(0.0, -0.15)",f,0,0,0,0,0,20,20,20,,,,,,,,,,,,,,,,,,,,,,,,,,,,,,,,,,,,,,,,,,,,,,,,195.84300699998857,195.84300699998857,195.84300699998857,195.84300699998857,195.84300699998857,j,0,2.9765210999757983,198.83444499998586,,,,,,,,,,,,,,,,,,,,,,,,,,,,,,,,,,,,,230624_lax,女,小学,8,001,2023-06-24_16h22.26.389,nalin_IRAP,2023.1.2,119.9656418857924,
~请按空格键进入练习阶段~,欣喜,"(0.0, -0.15)",j,0,0,0,0,0,21,21,15,,,,,,,,,,,,,,,,,,,,,,,,,,,,,,,,,,,,,,,,,,,,,,,,199.34249680000357,199.34249680000357,199.34249680000357,199.34249680000357,199.34249680000357,j,1,6.311597299994901,205.66474829998333,,,,,,,,,,,,,,,,,,,,,,,,,,,,,,,,,,,,,230624_lax,女,小学,8,001,2023-06-24_16h22.26.389,nalin_IRAP,2023.1.2,119.9656418857924,
~请按空格键进入练习阶段~,快乐,"(0.0, -0.15)",j,0,0,0,0,0,22,22,13,,,,,,,,,,,,,,,,,,,,,,,,,,,,,,,,,,,,,,,,,,,,,,,,206.1766224000021,206.1766224000021,206.1766224000021,206.1766224000021,206.1766224000021,j,1,2.08056829997804,208.26763179997215,,,,,,,,,,,,,,,,,,,,,,,,,,,,,,,,,,,,,230624_lax,女,小学,8,001,2023-06-24_16h22.26.389,nalin_IRAP,2023.1.2,119.9656418857924,
~请按空格键进入练习阶段~,,,,0,0,0,0,,,,,,,,,,,,,,,,,,,,,,,,,,,,,,,,,,,,,,,,,,,,,,,,,,,,,,,,,,,,,,,,,,,,,,,,,,,,,,,,,,,,,,,,,,,,,,,,,230624_lax,女,小学,8,001,2023-06-24_16h22.26.389,nalin_IRAP,2023.1.2,119.9656418857924,
"恭喜，你已达成80%正确率，可以继续实验

~请按空格键进入测试阶段~",喜悦,"(0.0, -0.15)",j,,,,,,,,,0,0,0,0,0,0,0,16,,,,,,,,,,,,,,,,,,,,,,,,,,,,,,,,,,,,,,,,,,,,,,,,,,208.85640190000413,208.85640190000413,space,18.92858130001696,227.8082418999984,227.8082418999984,227.8082418999984,227.8082418999984,227.8082418999984,j,1,6.617545799992513,234.43966129998444,,,,,,,,,,,,,,,,,,,,,,,230624_lax,女,小学,8,001,2023-06-24_16h22.26.389,nalin_IRAP,2023.1.2,119.9656418857924,
"恭喜，你已达成80%正确率，可以继续实验

~请按空格键进入测试阶段~",悲伤,"(0.0, 0.3)",j,,,,,,,,,0,0,0,0,0,1,1,9,,,,,,,,,,,,,,,,,,,,,,,,,,,,,,,,,,,,,,,,,,,,,,,,,,,,,,234.95115470001474,234.95115470001474,234.95115470001474,234.95115470001474,234.95115470001474,j,1,5.458852200012188,240.42180760001065,240.92572210001526,,,,,,,,,,,,,,,,,,,,,,230624_lax,女,小学,8,001,2023-06-24_16h22.26.389,nalin_IRAP,2023.1.2,119.9656418857924,
"恭喜，你已达成80%正确率，可以继续实验

~请按空格键进入测试阶段~",忧郁,"(0.0, 0.3)",j,,,,,,,,,0,0,0,0,0,2,2,10,,,,,,,,,,,,,,,,,,,,,,,,,,,,,,,,,,,,,,,,,,,,,,,,,,,,,,240.92572210001526,240.92572210001526,240.92572210001526,240.92572210001526,240.92572210001526,j,1,5.520724200003315,246.45734570000786,,,,,,,,,,,,,,,,,,,,,,,230624_lax,女,小学,8,001,2023-06-24_16h22.26.389,nalin_IRAP,2023.1.2,119.9656418857924,
"恭喜，你已达成80%正确率，可以继续实验

~请按空格键进入测试阶段~",伤心,"(0.0, -0.15)",f,,,,,,,,,0,0,0,0,0,3,3,18,,,,,,,,,,,,,,,,,,,,,,,,,,,,,,,,,,,,,,,,,,,,,,,,,,,,,,246.96770899998955,246.96770899998955,246.96770899998955,246.96770899998955,246.96770899998955,f,1,2.068222100031562,249.04760450002505,249.5517021000269,,,,,,,,,,,,,,,,,,,,,,230624_lax,女,小学,8,001,2023-06-24_16h22.26.389,nalin_IRAP,2023.1.2,119.9656418857924,
"恭喜，你已达成80%正确率，可以继续实验

~请按空格键进入测试阶段~",愉悦,"(0.0, 0.3)",f,,,,,,,,,0,0,0,0,0,4,4,2,,,,,,,,,,,,,,,,,,,,,,,,,,,,,,,,,,,,,,,,,,,,,,,,,,,,,,249.5517021000269,249.5517021000269,249.5517021000269,249.5517021000269,249.5517021000269,f,1,5.109446800022852,254.67582790000597,,,,,,,,,,,,,,,,,,,,,,,230624_lax,女,小学,8,001,2023-06-24_16h22.26.389,nalin_IRAP,2023.1.2,119.9656418857924,
"恭喜，你已达成80%正确率，可以继续实验

~请按空格键进入测试阶段~",高兴,"(0.0, 0.3)",f,,,,,,,,,0,0,0,0,0,5,5,0,,,,,,,,,,,,,,,,,,,,,,,,,,,,,,,,,,,,,,,,,,,,,,,,,,,,,,255.18297309998889,255.18297309998889,255.18297309998889,255.18297309998889,255.18297309998889,f,1,1.763833099976182,256.95509270002367,257.4590177999926,,,,,,,,,,,,,,,,,,,,,,230624_lax,女,小学,8,001,2023-06-24_16h22.26.389,nalin_IRAP,2023.1.2,119.9656418857924,
"恭喜，你已达成80%正确率，可以继续实验

~请按空格键进入测试阶段~",愉快,"(0.0, -0.15)",j,,,,,,,,,0,0,0,0,0,6,6,17,,,,,,,,,,,,,,,,,,,,,,,,,,,,,,,,,,,,,,,,,,,,,,,,,,,,,,257.4590177999926,257.4590177999926,257.4590177999926,257.4590177999926,257.4590177999926,j,1,2.815758500015363,260.28261980001116,,,,,,,,,,,,,,,,,,,,,,,230624_lax,女,小学,8,001,2023-06-24_16h22.26.389,nalin_IRAP,2023.1.2,119.9656418857924,
"恭喜，你已达成80%正确率，可以继续实验

~请按空格键进入测试阶段~",快乐,"(0.0, -0.15)",j,,,,,,,,,0,0,0,0,0,7,7,13,,,,,,,,,,,,,,,,,,,,,,,,,,,,,,,,,,,,,,,,,,,,,,,,,,,,,,260.7929866000195,260.7929866000195,260.7929866000195,260.7929866000195,260.7929866000195,j,1,1.8251803999883123,262.6301148000057,263.13472099998035,,,,,,,,,,,,,,,,,,,,,,230624_lax,女,小学,8,001,2023-06-24_16h22.26.389,nalin_IRAP,2023.1.2,119.9656418857924,
"恭喜，你已达成80%正确率，可以继续实验

~请按空格键进入测试阶段~",失落,"(0.0, -0.15)",f,,,,,,,,,0,0,0,0,0,8,8,19,,,,,,,,,,,,,,,,,,,,,,,,,,,,,,,,,,,,,,,,,,,,,,,,,,,,,,263.13472099998035,263.13472099998035,263.13472099998035,263.13472099998035,263.13472099998035,f,1,1.704148199991323,264.8473105999874,265.3509291000082,,,,,,,,,,,,,,,,,,,,,,230624_lax,女,小学,8,001,2023-06-24_16h22.26.389,nalin_IRAP,2023.1.2,119.9656418857924,
"恭喜，你已达成80%正确率，可以继续实验

~请按空格键进入测试阶段~",悲伤,"(0.0, -0.15)",f,,,,,,,,,0,0,0,0,0,9,9,21,,,,,,,,,,,,,,,,,,,,,,,,,,,,,,,,,,,,,,,,,,,,,,,,,,,,,,265.3509291000082,265.3509291000082,265.3509291000082,265.3509291000082,265.3509291000082,f,1,1.4751661999616772,266.8383330000215,267.34188760002144,,,,,,,,,,,,,,,,,,,,,,230624_lax,女,小学,8,001,2023-06-24_16h22.26.389,nalin_IRAP,2023.1.2,119.9656418857924,
"恭喜，你已达成80%正确率，可以继续实验

~请按空格键进入测试阶段~",失落,"(0.0, 0.3)",j,,,,,,,,,0,0,0,0,0,10,10,7,,,,,,,,,,,,,,,,,,,,,,,,,,,,,,,,,,,,,,,,,,,,,,,,,,,,,,267.34188760002144,267.34188760002144,267.34188760002144,267.34188760002144,267.34188760002144,j,1,2.924920400022529,270.2813694999786,,,,,,,,,,,,,,,,,,,,,,,230624_lax,女,小学,8,001,2023-06-24_16h22.26.389,nalin_IRAP,2023.1.2,119.9656418857924,
"恭喜，你已达成80%正确率，可以继续实验

~请按空格键进入测试阶段~",欣喜,"(0.0, -0.15)",j,,,,,,,,,0,0,0,0,0,11,11,15,,,,,,,,,,,,,,,,,,,,,,,,,,,,,,,,,,,,,,,,,,,,,,,,,,,,,,270.7919541000156,270.7919541000156,270.7919541000156,270.7919541000156,270.7919541000156,j,1,2.0820593999815173,272.8824783000164,,,,,,,,,,,,,,,,,,,,,,,230624_lax,女,小学,8,001,2023-06-24_16h22.26.389,nalin_IRAP,2023.1.2,119.9656418857924,
"恭喜，你已达成80%正确率，可以继续实验

~请按空格键进入测试阶段~",伤心,"(0.0, 0.3)",j,,,,,,,,,0,0,0,0,0,12,12,6,,,,,,,,,,,,,,,,,,,,,,,,,,,,,,,,,,,,,,,,,,,,,,,,,,,,,,273.39214619999984,273.39214619999984,273.39214619999984,273.39214619999984,273.39214619999984,j,1,3.860035300021991,277.26514650002355,,,,,,,,,,,,,,,,,,,,,,,230624_lax,女,小学,8,001,2023-06-24_16h22.26.389,nalin_IRAP,2023.1.2,119.9656418857924,
"恭喜，你已达成80%正确率，可以继续实验

~请按空格键进入测试阶段~",忧郁,"(0.0, -0.15)",f,,,,,,,,,0,0,0,0,0,13,13,22,,,,,,,,,,,,,,,,,,,,,,,,,,,,,,,,,,,,,,,,,,,,,,,,,,,,,,277.77607999998145,277.77607999998145,277.77607999998145,277.77607999998145,277.77607999998145,f,1,2.297624099999666,280.0839245999814,,,,,,,,,,,,,,,,,,,,,,,230624_lax,女,小学,8,001,2023-06-24_16h22.26.389,nalin_IRAP,2023.1.2,119.9656418857924,
"恭喜，你已达成80%正确率，可以继续实验

~请按空格键进入测试阶段~",愁苦,"(0.0, 0.3)",j,,,,,,,,,0,0,0,0,0,14,14,11,,,,,,,,,,,,,,,,,,,,,,,,,,,,,,,,,,,,,,,,,,,,,,,,,,,,,,280.5923199999961,280.5923199999961,280.5923199999961,280.5923199999961,280.5923199999961,j,1,3.0774913000059314,283.6799247000017,284.1831399999792,,,,,,,,,,,,,,,,,,,,,,230624_lax,女,小学,8,001,2023-06-24_16h22.26.389,nalin_IRAP,2023.1.2,119.9656418857924,
"恭喜，你已达成80%正确率，可以继续实验

~请按空格键进入测试阶段~",愉悦,"(0.0, -0.15)",j,,,,,,,,,0,0,0,0,0,15,15,14,,,,,,,,,,,,,,,,,,,,,,,,,,,,,,,,,,,,,,,,,,,,,,,,,,,,,,284.1831399999792,284.1831399999792,284.1831399999792,284.1831399999792,284.1831399999792,f,0,2.1286494999658316,286.3278626999818,,,,,,,,,,,,,,,,,,,,,,,230624_lax,女,小学,8,001,2023-06-24_16h22.26.389,nalin_IRAP,2023.1.2,119.9656418857924,
"恭喜，你已达成80%正确率，可以继续实验

~请按空格键进入测试阶段~",喜悦,"(0.0, 0.3)",f,,,,,,,,,0,0,0,0,0,16,16,4,,,,,,,,,,,,,,,,,,,,,,,,,,,,,,,,,,,,,,,,,,,,,,,,,,,,,,286.83484419999877,286.83484419999877,286.83484419999877,286.83484419999877,286.83484419999877,f,1,1.9986284000333399,288.8468084000051,289.35195410001324,,,,,,,,,,,,,,,,,,,,,,230624_lax,女,小学,8,001,2023-06-24_16h22.26.389,nalin_IRAP,2023.1.2,119.9656418857924,
"恭喜，你已达成80%正确率，可以继续实验

~请按空格键进入测试阶段~",快乐,"(0.0, 0.3)",f,,,,,,,,,0,0,0,0,0,17,17,1,,,,,,,,,,,,,,,,,,,,,,,,,,,,,,,,,,,,,,,,,,,,,,,,,,,,,,289.35195410001324,289.35195410001324,289.35195410001324,289.35195410001324,289.35195410001324,f,1,4.630475600017235,293.9933515000157,,,,,,,,,,,,,,,,,,,,,,,230624_lax,女,小学,8,001,2023-06-24_16h22.26.389,nalin_IRAP,2023.1.2,119.9656418857924,
"恭喜，你已达成80%正确率，可以继续实验

~请按空格键进入测试阶段~",难过,"(0.0, 0.3)",j,,,,,,,,,0,0,0,0,0,18,18,8,,,,,,,,,,,,,,,,,,,,,,,,,,,,,,,,,,,,,,,,,,,,,,,,,,,,,,294.50094759999774,294.50094759999774,294.50094759999774,294.50094759999774,294.50094759999774,j,1,2.7770836999989115,297.2892148999963,297.7925239999895,,,,,,,,,,,,,,,,,,,,,,230624_lax,女,小学,8,001,2023-06-24_16h22.26.389,nalin_IRAP,2023.1.2,119.9656418857924,
"恭喜，你已达成80%正确率，可以继续实验

~请按空格键进入测试阶段~",高兴,"(0.0, -0.15)",j,,,,,,,,,0,0,0,0,0,19,19,12,,,,,,,,,,,,,,,,,,,,,,,,,,,,,,,,,,,,,,,,,,,,,,,,,,,,,,297.7925239999895,297.7925239999895,297.7925239999895,297.7925239999895,297.7925239999895,j,1,2.048669499985408,299.85685869998997,,,,,,,,,,,,,,,,,,,,,,,230624_lax,女,小学,8,001,2023-06-24_16h22.26.389,nalin_IRAP,2023.1.2,119.9656418857924,
"恭喜，你已达成80%正确率，可以继续实验

~请按空格键进入测试阶段~",愉快,"(0.0, 0.3)",f,,,,,,,,,0,0,0,0,0,20,20,5,,,,,,,,,,,,,,,,,,,,,,,,,,,,,,,,,,,,,,,,,,,,,,,,,,,,,,300.36763059999794,300.36763059999794,300.36763059999794,300.36763059999794,300.36763059999794,f,1,2.703164000005927,303.0860826999997,,,,,,,,,,,,,,,,,,,,,,,230624_lax,女,小学,8,001,2023-06-24_16h22.26.389,nalin_IRAP,2023.1.2,119.9656418857924,
"恭喜，你已达成80%正确率，可以继续实验

~请按空格键进入测试阶段~",欣喜,"(0.0, 0.3)",f,,,,,,,,,0,0,0,0,0,21,21,3,,,,,,,,,,,,,,,,,,,,,,,,,,,,,,,,,,,,,,,,,,,,,,,,,,,,,,303.5932806999772,303.5932806999772,303.5932806999772,303.5932806999772,303.5932806999772,f,1,5.30449020001106,308.9074746000115,,,,,,,,,,,,,,,,,,,,,,,230624_lax,女,小学,8,001,2023-06-24_16h22.26.389,nalin_IRAP,2023.1.2,119.9656418857924,
"恭喜，你已达成80%正确率，可以继续实验

~请按空格键进入测试阶段~",难过,"(0.0, -0.15)",f,,,,,,,,,0,0,0,0,0,22,22,20,,,,,,,,,,,,,,,,,,,,,,,,,,,,,,,,,,,,,,,,,,,,,,,,,,,,,,309.4169254999724,309.4169254999724,309.4169254999724,309.4169254999724,309.4169254999724,f,1,2.8759386999881826,312.3063143999898,,,,,,,,,,,,,,,,,,,,,,,230624_lax,女,小学,8,001,2023-06-24_16h22.26.389,nalin_IRAP,2023.1.2,119.9656418857924,
"恭喜，你已达成80%正确率，可以继续实验

~请按空格键进入测试阶段~",愁苦,"(0.0, -0.15)",f,,,,,,,,,0,0,0,0,0,23,23,23,,,,,,,,,,,,,,,,,,,,,,,,,,,,,,,,,,,,,,,,,,,,,,,,,,,,,,312.8172407000093,312.8172407000093,312.8172407000093,312.8172407000093,312.8172407000093,f,1,1.8030512999976054,314.6299372999929,315.1354719999945,,,,,,,,,,,,,,,,,,,,,,230624_lax,女,小学,8,001,2023-06-24_16h22.26.389,nalin_IRAP,2023.1.2,119.9656418857924,
"恭喜，你已达成80%正确率，可以继续实验

~请按空格键进入测试阶段~",喜悦,"(0.0, -0.15)",j,,,,,,,,,0,0,0,0,1,0,24,16,,,,,,,,,,,,,,,,,,,,,,,,,,,,,,,,,,,,,,,,,,,,,,,,,,,,,,315.1354719999945,315.1354719999945,315.1354719999945,315.1354719999945,315.1354719999945,j,1,1.7407937999814749,316.8862331000273,317.39006499998504,,,,,,,,,,,,,,,,,,,,,,230624_lax,女,小学,8,001,2023-06-24_16h22.26.389,nalin_IRAP,2023.1.2,119.9656418857924,
"恭喜，你已达成80%正确率，可以继续实验

~请按空格键进入测试阶段~",喜悦,"(0.0, 0.3)",f,,,,,,,,,0,0,0,0,1,1,25,4,,,,,,,,,,,,,,,,,,,,,,,,,,,,,,,,,,,,,,,,,,,,,,,,,,,,,,317.39006499998504,317.39006499998504,317.39006499998504,317.39006499998504,317.39006499998504,f,1,2.0143382000387646,319.41579759999877,,,,,,,,,,,,,,,,,,,,,,,230624_lax,女,小学,8,001,2023-06-24_16h22.26.389,nalin_IRAP,2023.1.2,119.9656418857924,
"恭喜，你已达成80%正确率，可以继续实验

~请按空格键进入测试阶段~",忧郁,"(0.0, -0.15)",f,,,,,,,,,0,0,0,0,1,2,26,22,,,,,,,,,,,,,,,,,,,,,,,,,,,,,,,,,,,,,,,,,,,,,,,,,,,,,,319.9259713999927,319.9259713999927,319.9259713999927,319.9259713999927,319.9259713999927,f,1,4.660760600003414,324.60157120000804,,,,,,,,,,,,,,,,,,,,,,,230624_lax,女,小学,8,001,2023-06-24_16h22.26.389,nalin_IRAP,2023.1.2,119.9656418857924,
"恭喜，你已达成80%正确率，可以继续实验

~请按空格键进入测试阶段~",欣喜,"(0.0, -0.15)",j,,,,,,,,,0,0,0,0,1,3,27,15,,,,,,,,,,,,,,,,,,,,,,,,,,,,,,,,,,,,,,,,,,,,,,,,,,,,,,325.10982319997856,325.10982319997856,325.10982319997856,325.10982319997856,325.10982319997856,j,1,1.9815069999895059,327.09909839998,,,,,,,,,,,,,,,,,,,,,,,230624_lax,女,小学,8,001,2023-06-24_16h22.26.389,nalin_IRAP,2023.1.2,119.9656418857924,
"恭喜，你已达成80%正确率，可以继续实验

~请按空格键进入测试阶段~",快乐,"(0.0, -0.15)",j,,,,,,,,,0,0,0,0,1,4,28,13,,,,,,,,,,,,,,,,,,,,,,,,,,,,,,,,,,,,,,,,,,,,,,,,,,,,,,327.6095731999958,327.6095731999958,327.6095731999958,327.6095731999958,327.6095731999958,j,1,2.2279127000365406,329.8527881000191,330.35920309997164,,,,,,,,,,,,,,,,,,,,,,230624_lax,女,小学,8,001,2023-06-24_16h22.26.389,nalin_IRAP,2023.1.2,119.9656418857924,
"恭喜，你已达成80%正确率，可以继续实验

~请按空格键进入测试阶段~",愁苦,"(0.0, 0.3)",j,,,,,,,,,0,0,0,0,1,5,29,11,,,,,,,,,,,,,,,,,,,,,,,,,,,,,,,,,,,,,,,,,,,,,,,,,,,,,,330.35920309997164,330.35920309997164,330.35920309997164,330.35920309997164,330.35920309997164,j,1,2.9177842000499368,333.28535219997866,,,,,,,,,,,,,,,,,,,,,,,230624_lax,女,小学,8,001,2023-06-24_16h22.26.389,nalin_IRAP,2023.1.2,119.9656418857924,
"恭喜，你已达成80%正确率，可以继续实验

~请按空格键进入测试阶段~",快乐,"(0.0, 0.3)",f,,,,,,,,,0,0,0,0,1,6,30,1,,,,,,,,,,,,,,,,,,,,,,,,,,,,,,,,,,,,,,,,,,,,,,,,,,,,,,333.79288510000333,333.79288510000333,333.79288510000333,333.79288510000333,333.79288510000333,f,1,1.5695776999928057,335.3761046999716,,,,,,,,,,,,,,,,,,,,,,,230624_lax,女,小学,8,001,2023-06-24_16h22.26.389,nalin_IRAP,2023.1.2,119.9656418857924,
"恭喜，你已达成80%正确率，可以继续实验

~请按空格键进入测试阶段~",伤心,"(0.0, 0.3)",j,,,,,,,,,0,0,0,0,1,7,31,6,,,,,,,,,,,,,,,,,,,,,,,,,,,,,,,,,,,,,,,,,,,,,,,,,,,,,,335.88424470002064,335.88424470002064,335.88424470002064,335.88424470002064,335.88424470002064,j,1,1.3264922999660484,337.22320770000806,,,,,,,,,,,,,,,,,,,,,,,230624_lax,女,小学,8,001,2023-06-24_16h22.26.389,nalin_IRAP,2023.1.2,119.9656418857924,
"恭喜，你已达成80%正确率，可以继续实验

~请按空格键进入测试阶段~",高兴,"(0.0, 0.3)",f,,,,,,,,,0,0,0,0,1,8,32,0,,,,,,,,,,,,,,,,,,,,,,,,,,,,,,,,,,,,,,,,,,,,,,,,,,,,,,337.7341703000129,337.7341703000129,337.7341703000129,337.7341703000129,337.7341703000129,f,1,2.3169672999647446,340.0631747000152,340.56817370001227,,,,,,,,,,,,,,,,,,,,,,230624_lax,女,小学,8,001,2023-06-24_16h22.26.389,nalin_IRAP,2023.1.2,119.9656418857924,
"恭喜，你已达成80%正确率，可以继续实验

~请按空格键进入测试阶段~",难过,"(0.0, -0.15)",f,,,,,,,,,0,0,0,0,1,9,33,20,,,,,,,,,,,,,,,,,,,,,,,,,,,,,,,,,,,,,,,,,,,,,,,,,,,,,,340.56817370001227,340.56817370001227,340.56817370001227,340.56817370001227,340.56817370001227,j,0,1.8720980999642052,342.45050009997794,,,,,,,,,,,,,,,,,,,,,,,230624_lax,女,小学,8,001,2023-06-24_16h22.26.389,nalin_IRAP,2023.1.2,119.9656418857924,
"恭喜，你已达成80%正确率，可以继续实验

~请按空格键进入测试阶段~",愉快,"(0.0, -0.15)",j,,,,,,,,,0,0,0,0,1,10,34,17,,,,,,,,,,,,,,,,,,,,,,,,,,,,,,,,,,,,,,,,,,,,,,,,,,,,,,342.9578686999739,342.9578686999739,342.9578686999739,342.9578686999739,342.9578686999739,j,1,5.981648700020742,348.9546784000122,,,,,,,,,,,,,,,,,,,,,,,230624_lax,女,小学,8,001,2023-06-24_16h22.26.389,nalin_IRAP,2023.1.2,119.9656418857924,
"恭喜，你已达成80%正确率，可以继续实验

~请按空格键进入测试阶段~",悲伤,"(0.0, -0.15)",f,,,,,,,,,0,0,0,0,1,11,35,21,,,,,,,,,,,,,,,,,,,,,,,,,,,,,,,,,,,,,,,,,,,,,,,,,,,,,,349.45711369998753,349.45711369998753,349.45711369998753,349.45711369998753,349.45711369998753,f,1,4.191377800016198,353.66300649999175,354.1684113999945,,,,,,,,,,,,,,,,,,,,,,230624_lax,女,小学,8,001,2023-06-24_16h22.26.389,nalin_IRAP,2023.1.2,119.9656418857924,
"恭喜，你已达成80%正确率，可以继续实验

~请按空格键进入测试阶段~",失落,"(0.0, 0.3)",j,,,,,,,,,0,0,0,0,1,12,36,7,,,,,,,,,,,,,,,,,,,,,,,,,,,,,,,,,,,,,,,,,,,,,,,,,,,,,,354.1684113999945,354.1684113999945,354.1684113999945,354.1684113999945,354.1684113999945,j,1,2.2711096999701113,356.4479041000013,,,,,,,,,,,,,,,,,,,,,,,230624_lax,女,小学,8,001,2023-06-24_16h22.26.389,nalin_IRAP,2023.1.2,119.9656418857924,
"恭喜，你已达成80%正确率，可以继续实验

~请按空格键进入测试阶段~",高兴,"(0.0, -0.15)",j,,,,,,,,,0,0,0,0,1,13,37,12,,,,,,,,,,,,,,,,,,,,,,,,,,,,,,,,,,,,,,,,,,,,,,,,,,,,,,356.9593199000228,356.9593199000228,356.9593199000228,356.9593199000228,356.9593199000228,j,1,1.7282959999865852,358.6966758000199,359.2011730999802,,,,,,,,,,,,,,,,,,,,,,230624_lax,女,小学,8,001,2023-06-24_16h22.26.389,nalin_IRAP,2023.1.2,119.9656418857924,
"恭喜，你已达成80%正确率，可以继续实验

~请按空格键进入测试阶段~",伤心,"(0.0, -0.15)",f,,,,,,,,,0,0,0,0,1,14,38,18,,,,,,,,,,,,,,,,,,,,,,,,,,,,,,,,,,,,,,,,,,,,,,,,,,,,,,359.2011730999802,359.2011730999802,359.2011730999802,359.2011730999802,359.2011730999802,j,0,7.350644399994053,366.5645204000175,,,,,,,,,,,,,,,,,,,,,,,230624_lax,女,小学,8,001,2023-06-24_16h22.26.389,nalin_IRAP,2023.1.2,119.9656418857924,
"恭喜，你已达成80%正确率，可以继续实验

~请按空格键进入测试阶段~",欣喜,"(0.0, 0.3)",f,,,,,,,,,0,0,0,0,1,15,39,3,,,,,,,,,,,,,,,,,,,,,,,,,,,,,,,,,,,,,,,,,,,,,,,,,,,,,,367.07674150000094,367.07674150000094,367.07674150000094,367.07674150000094,367.07674150000094,f,1,2.0075484000262804,369.0985627999762,,,,,,,,,,,,,,,,,,,,,,,230624_lax,女,小学,8,001,2023-06-24_16h22.26.389,nalin_IRAP,2023.1.2,119.9656418857924,
"恭喜，你已达成80%正确率，可以继续实验

~请按空格键进入测试阶段~",悲伤,"(0.0, 0.3)",j,,,,,,,,,0,0,0,0,1,16,40,9,,,,,,,,,,,,,,,,,,,,,,,,,,,,,,,,,,,,,,,,,,,,,,,,,,,,,,369.6096899000113,369.6096899000113,369.6096899000113,369.6096899000113,369.6096899000113,j,1,1.3946832000510767,371.01457499997923,,,,,,,,,,,,,,,,,,,,,,,230624_lax,女,小学,8,001,2023-06-24_16h22.26.389,nalin_IRAP,2023.1.2,119.9656418857924,
"恭喜，你已达成80%正确率，可以继续实验

~请按空格键进入测试阶段~",愉悦,"(0.0, 0.3)",f,,,,,,,,,0,0,0,0,1,17,41,2,,,,,,,,,,,,,,,,,,,,,,,,,,,,,,,,,,,,,,,,,,,,,,,,,,,,,,371.5270828999928,371.5270828999928,371.5270828999928,371.5270828999928,371.5270828999928,f,1,1.5830793000059202,373.1217417999869,373.6266620000242,,,,,,,,,,,,,,,,,,,,,,230624_lax,女,小学,8,001,2023-06-24_16h22.26.389,nalin_IRAP,2023.1.2,119.9656418857924,
"恭喜，你已达成80%正确率，可以继续实验

~请按空格键进入测试阶段~",愁苦,"(0.0, -0.15)",f,,,,,,,,,0,0,0,0,1,18,42,23,,,,,,,,,,,,,,,,,,,,,,,,,,,,,,,,,,,,,,,,,,,,,,,,,,,,,,373.6266620000242,373.6266620000242,373.6266620000242,373.6266620000242,373.6266620000242,f,1,2.135676100035198,375.77301669999724,,,,,,,,,,,,,,,,,,,,,,,230624_lax,女,小学,8,001,2023-06-24_16h22.26.389,nalin_IRAP,2023.1.2,119.9656418857924,
"恭喜，你已达成80%正确率，可以继续实验

~请按空格键进入测试阶段~",愉悦,"(0.0, -0.15)",j,,,,,,,,,0,0,0,0,1,19,43,14,,,,,,,,,,,,,,,,,,,,,,,,,,,,,,,,,,,,,,,,,,,,,,,,,,,,,,376.2845357999904,376.2845357999904,376.2845357999904,376.2845357999904,376.2845357999904,j,1,1.9363670000457205,378.2347399999853,,,,,,,,,,,,,,,,,,,,,,,230624_lax,女,小学,8,001,2023-06-24_16h22.26.389,nalin_IRAP,2023.1.2,119.9656418857924,
"恭喜，你已达成80%正确率，可以继续实验

~请按空格键进入测试阶段~",愉快,"(0.0, 0.3)",f,,,,,,,,,0,0,0,0,1,20,44,5,,,,,,,,,,,,,,,,,,,,,,,,,,,,,,,,,,,,,,,,,,,,,,,,,,,,,,378.7421250999905,378.7421250999905,378.7421250999905,378.7421250999905,378.7421250999905,f,1,3.1531606999924406,381.90762219997123,,,,,,,,,,,,,,,,,,,,,,,230624_lax,女,小学,8,001,2023-06-24_16h22.26.389,nalin_IRAP,2023.1.2,119.9656418857924,
"恭喜，你已达成80%正确率，可以继续实验

~请按空格键进入测试阶段~",忧郁,"(0.0, 0.3)",j,,,,,,,,,0,0,0,0,1,21,45,10,,,,,,,,,,,,,,,,,,,,,,,,,,,,,,,,,,,,,,,,,,,,,,,,,,,,,,382.4166081000003,382.4166081000003,382.4166081000003,382.4166081000003,382.4166081000003,j,1,2.10042049997719,384.52574489999097,,,,,,,,,,,,,,,,,,,,,,,230624_lax,女,小学,8,001,2023-06-24_16h22.26.389,nalin_IRAP,2023.1.2,119.9656418857924,
"恭喜，你已达成80%正确率，可以继续实验

~请按空格键进入测试阶段~",失落,"(0.0, -0.15)",f,,,,,,,,,0,0,0,0,1,22,46,19,,,,,,,,,,,,,,,,,,,,,,,,,,,,,,,,,,,,,,,,,,,,,,,,,,,,,,385.03208789997734,385.03208789997734,385.03208789997734,385.03208789997734,385.03208789997734,f,1,3.79074969998328,388.83801190002123,389.3434267999837,,,,,,,,,,,,,,,,,,,,,,230624_lax,女,小学,8,001,2023-06-24_16h22.26.389,nalin_IRAP,2023.1.2,119.9656418857924,
"恭喜，你已达成80%正确率，可以继续实验

~请按空格键进入测试阶段~",难过,"(0.0, 0.3)",j,,,,,,,,,0,0,0,0,1,23,47,8,,,,,,,,,,,,,,,,,,,,,,,,,,,,,,,,,,,,,,,,,,,,,,,,,,,,,,389.3434267999837,389.3434267999837,389.3434267999837,389.3434267999837,389.3434267999837,f,0,3.4834161999751814,392.84131109999726,,,,,,,,,,,,,,,,,,,,,,,230624_lax,女,小学,8,001,2023-06-24_16h22.26.389,nalin_IRAP,2023.1.2,119.9656418857924,
"恭喜，你已达成80%正确率，可以继续实验

~请按空格键进入测试阶段~",失落,"(0.0, -0.15)",f,,,,,,,,,0,0,0,0,2,0,48,19,,,,,,,,,,,,,,,,,,,,,,,,,,,,,,,,,,,,,,,,,,,,,,,,,,,,,,393.35091939999256,393.35091939999256,393.35091939999256,393.35091939999256,393.35091939999256,f,1,30.744324299972504,424.1105863000266,,,,,,,,,,,,,,,,,,,,,,,230624_lax,女,小学,8,001,2023-06-24_16h22.26.389,nalin_IRAP,2023.1.2,119.9656418857924,
"恭喜，你已达成80%正确率，可以继续实验

~请按空格键进入测试阶段~",愉悦,"(0.0, 0.3)",f,,,,,,,,,0,0,0,0,2,1,49,2,,,,,,,,,,,,,,,,,,,,,,,,,,,,,,,,,,,,,,,,,,,,,,,,,,,,,,424.61795530002564,424.61795530002564,424.61795530002564,424.61795530002564,424.61795530002564,f,1,1.6432903000386432,426.27318850002484,,,,,,,,,,,,,,,,,,,,,,,230624_lax,女,小学,8,001,2023-06-24_16h22.26.389,nalin_IRAP,2023.1.2,119.9656418857924,
"恭喜，你已达成80%正确率，可以继续实验

~请按空格键进入测试阶段~",愉快,"(0.0, -0.15)",j,,,,,,,,,0,0,0,0,2,2,50,17,,,,,,,,,,,,,,,,,,,,,,,,,,,,,,,,,,,,,,,,,,,,,,,,,,,,,,426.7835990000167,426.7835990000167,426.7835990000167,426.7835990000167,426.7835990000167,j,1,3.2876278000185266,430.0795611999929,430.58481450000545,,,,,,,,,,,,,,,,,,,,,,230624_lax,女,小学,8,001,2023-06-24_16h22.26.389,nalin_IRAP,2023.1.2,119.9656418857924,
"恭喜，你已达成80%正确率，可以继续实验

~请按空格键进入测试阶段~",愁苦,"(0.0, -0.15)",f,,,,,,,,,0,0,0,0,2,3,51,23,,,,,,,,,,,,,,,,,,,,,,,,,,,,,,,,,,,,,,,,,,,,,,,,,,,,,,430.58481450000545,430.58481450000545,430.58481450000545,430.58481450000545,430.58481450000545,f,1,1.7491268999874592,432.3478390999953,,,,,,,,,,,,,,,,,,,,,,,230624_lax,女,小学,8,001,2023-06-24_16h22.26.389,nalin_IRAP,2023.1.2,119.9656418857924,
"恭喜，你已达成80%正确率，可以继续实验

~请按空格键进入测试阶段~",悲伤,"(0.0, 0.3)",j,,,,,,,,,0,0,0,0,2,4,52,9,,,,,,,,,,,,,,,,,,,,,,,,,,,,,,,,,,,,,,,,,,,,,,,,,,,,,,432.8594259999809,432.8594259999809,432.8594259999809,432.8594259999809,432.8594259999809,j,1,1.9060547999688424,434.7797473000246,435.2848298000172,,,,,,,,,,,,,,,,,,,,,,230624_lax,女,小学,8,001,2023-06-24_16h22.26.389,nalin_IRAP,2023.1.2,119.9656418857924,
"恭喜，你已达成80%正确率，可以继续实验

~请按空格键进入测试阶段~",伤心,"(0.0, -0.15)",f,,,,,,,,,0,0,0,0,2,5,53,18,,,,,,,,,,,,,,,,,,,,,,,,,,,,,,,,,,,,,,,,,,,,,,,,,,,,,,435.2848298000172,435.2848298000172,435.2848298000172,435.2848298000172,435.2848298000172,f,1,2.5529111999785528,437.8485780999763,,,,,,,,,,,,,,,,,,,,,,,230624_lax,女,小学,8,001,2023-06-24_16h22.26.389,nalin_IRAP,2023.1.2,119.9656418857924,
"恭喜，你已达成80%正确率，可以继续实验

~请按空格键进入测试阶段~",欣喜,"(0.0, -0.15)",j,,,,,,,,,0,0,0,0,2,6,54,15,,,,,,,,,,,,,,,,,,,,,,,,,,,,,,,,,,,,,,,,,,,,,,,,,,,,,,438.35978910000995,438.35978910000995,438.35978910000995,438.35978910000995,438.35978910000995,j,1,4.794890700024553,443.1662588000181,,,,,,,,,,,,,,,,,,,,,,,230624_lax,女,小学,8,001,2023-06-24_16h22.26.389,nalin_IRAP,2023.1.2,119.9656418857924,
"恭喜，你已达成80%正确率，可以继续实验

~请按空格键进入测试阶段~",伤心,"(0.0, 0.3)",j,,,,,,,,,0,0,0,0,2,7,55,6,,,,,,,,,,,,,,,,,,,,,,,,,,,,,,,,,,,,,,,,,,,,,,,,,,,,,,443.67467839998426,443.67467839998426,443.67467839998426,443.67467839998426,443.67467839998426,j,1,2.791464800015092,446.47459529998014,,,,,,,,,,,,,,,,,,,,,,,230624_lax,女,小学,8,001,2023-06-24_16h22.26.389,nalin_IRAP,2023.1.2,119.9656418857924,
"恭喜，你已达成80%正确率，可以继续实验

~请按空格键进入测试阶段~",欣喜,"(0.0, 0.3)",f,,,,,,,,,0,0,0,0,2,8,56,3,,,,,,,,,,,,,,,,,,,,,,,,,,,,,,,,,,,,,,,,,,,,,,,,,,,,,,446.9834484999883,446.9834484999883,446.9834484999883,446.9834484999883,446.9834484999883,f,1,1.7761178000364453,448.7739258999936,,,,,,,,,,,,,,,,,,,,,,,230624_lax,女,小学,8,001,2023-06-24_16h22.26.389,nalin_IRAP,2023.1.2,119.9656418857924,
"恭喜，你已达成80%正确率，可以继续实验

~请按空格键进入测试阶段~",忧郁,"(0.0, -0.15)",f,,,,,,,,,0,0,0,0,2,9,57,22,,,,,,,,,,,,,,,,,,,,,,,,,,,,,,,,,,,,,,,,,,,,,,,,,,,,,,449.2831137999892,449.2831137999892,449.2831137999892,449.2831137999892,449.2831137999892,f,1,1.6189782000146806,450.9117725000251,451.41748709999956,,,,,,,,,,,,,,,,,,,,,,230624_lax,女,小学,8,001,2023-06-24_16h22.26.389,nalin_IRAP,2023.1.2,119.9656418857924,
"恭喜，你已达成80%正确率，可以继续实验

~请按空格键进入测试阶段~",愉悦,"(0.0, -0.15)",j,,,,,,,,,0,0,0,0,2,10,58,14,,,,,,,,,,,,,,,,,,,,,,,,,,,,,,,,,,,,,,,,,,,,,,,,,,,,,,451.41748709999956,451.41748709999956,451.41748709999956,451.41748709999956,451.41748709999956,j,1,1.8119876999990083,453.24055250000674,,,,,,,,,,,,,,,,,,,,,,,230624_lax,女,小学,8,001,2023-06-24_16h22.26.389,nalin_IRAP,2023.1.2,119.9656418857924,
"恭喜，你已达成80%正确率，可以继续实验

~请按空格键进入测试阶段~",愉快,"(0.0, 0.3)",f,,,,,,,,,0,0,0,0,2,11,59,5,,,,,,,,,,,,,,,,,,,,,,,,,,,,,,,,,,,,,,,,,,,,,,,,,,,,,,453.7482741000131,453.7482741000131,453.7482741000131,453.7482741000131,453.7482741000131,f,1,1.700271099980455,455.4636371000088,455.967425299983,,,,,,,,,,,,,,,,,,,,,,230624_lax,女,小学,8,001,2023-06-24_16h22.26.389,nalin_IRAP,2023.1.2,119.9656418857924,
"恭喜，你已达成80%正确率，可以继续实验

~请按空格键进入测试阶段~",喜悦,"(0.0, 0.3)",f,,,,,,,,,0,0,0,0,2,12,60,4,,,,,,,,,,,,,,,,,,,,,,,,,,,,,,,,,,,,,,,,,,,,,,,,,,,,,,455.967425299983,455.967425299983,455.967425299983,455.967425299983,455.967425299983,f,1,1.3740187999792397,457.3555520999944,,,,,,,,,,,,,,,,,,,,,,,230624_lax,女,小学,8,001,2023-06-24_16h22.26.389,nalin_IRAP,2023.1.2,119.9656418857924,
"恭喜，你已达成80%正确率，可以继续实验

~请按空格键进入测试阶段~",难过,"(0.0, -0.15)",f,,,,,,,,,0,0,0,0,2,13,61,20,,,,,,,,,,,,,,,,,,,,,,,,,,,,,,,,,,,,,,,,,,,,,,,,,,,,,,457.86681789997965,457.86681789997965,457.86681789997965,457.86681789997965,457.86681789997965,f,1,1.62041659996612,459.4959842999815,460.00051209999947,,,,,,,,,,,,,,,,,,,,,,230624_lax,女,小学,8,001,2023-06-24_16h22.26.389,nalin_IRAP,2023.1.2,119.9656418857924,
"恭喜，你已达成80%正确率，可以继续实验

~请按空格键进入测试阶段~",快乐,"(0.0, 0.3)",f,,,,,,,,,0,0,0,0,2,14,62,1,,,,,,,,,,,,,,,,,,,,,,,,,,,,,,,,,,,,,,,,,,,,,,,,,,,,,,460.00051209999947,460.00051209999947,460.00051209999947,460.00051209999947,460.00051209999947,f,1,1.3291440999601036,461.3377070000279,461.8395318000112,,,,,,,,,,,,,,,,,,,,,,230624_lax,女,小学,8,001,2023-06-24_16h22.26.389,nalin_IRAP,2023.1.2,119.9656418857924,
"恭喜，你已达成80%正确率，可以继续实验

~请按空格键进入测试阶段~",快乐,"(0.0, -0.15)",j,,,,,,,,,0,0,0,0,2,15,63,13,,,,,,,,,,,,,,,,,,,,,,,,,,,,,,,,,,,,,,,,,,,,,,,,,,,,,,461.8395318000112,461.8395318000112,461.8395318000112,461.8395318000112,461.8395318000112,j,1,1.2764872999978252,463.1312995000044,,,,,,,,,,,,,,,,,,,,,,,230624_lax,女,小学,8,001,2023-06-24_16h22.26.389,nalin_IRAP,2023.1.2,119.9656418857924,
"恭喜，你已达成80%正确率，可以继续实验

~请按空格键进入测试阶段~",愁苦,"(0.0, 0.3)",j,,,,,,,,,0,0,0,0,2,16,64,11,,,,,,,,,,,,,,,,,,,,,,,,,,,,,,,,,,,,,,,,,,,,,,,,,,,,,,463.6407580000232,463.6407580000232,463.6407580000232,463.6407580000232,463.6407580000232,j,1,2.448619899980258,466.10478220001096,466.60881579999113,,,,,,,,,,,,,,,,,,,,,,230624_lax,女,小学,8,001,2023-06-24_16h22.26.389,nalin_IRAP,2023.1.2,119.9656418857924,
"恭喜，你已达成80%正确率，可以继续实验

~请按空格键进入测试阶段~",难过,"(0.0, 0.3)",j,,,,,,,,,0,0,0,0,2,17,65,8,,,,,,,,,,,,,,,,,,,,,,,,,,,,,,,,,,,,,,,,,,,,,,,,,,,,,,466.60881579999113,466.60881579999113,466.60881579999113,466.60881579999113,466.60881579999113,j,1,1.9121256000362337,468.52943719999166,469.0349206000101,,,,,,,,,,,,,,,,,,,,,,230624_lax,女,小学,8,001,2023-06-24_16h22.26.389,nalin_IRAP,2023.1.2,119.9656418857924,
"恭喜，你已达成80%正确率，可以继续实验

~请按空格键进入测试阶段~",失落,"(0.0, 0.3)",j,,,,,,,,,0,0,0,0,2,18,66,7,,,,,,,,,,,,,,,,,,,,,,,,,,,,,,,,,,,,,,,,,,,,,,,,,,,,,,469.0349206000101,469.0349206000101,469.0349206000101,469.0349206000101,469.0349206000101,j,1,1.319358899956569,470.36281959997723,470.86679280002136,,,,,,,,,,,,,,,,,,,,,,230624_lax,女,小学,8,001,2023-06-24_16h22.26.389,nalin_IRAP,2023.1.2,119.9656418857924,
"恭喜，你已达成80%正确率，可以继续实验

~请按空格键进入测试阶段~",忧郁,"(0.0, 0.3)",j,,,,,,,,,0,0,0,0,2,19,67,10,,,,,,,,,,,,,,,,,,,,,,,,,,,,,,,,,,,,,,,,,,,,,,,,,,,,,,470.86679280002136,470.86679280002136,470.86679280002136,470.86679280002136,470.86679280002136,j,1,1.9023966999957338,472.7794242000091,473.2835845000227,,,,,,,,,,,,,,,,,,,,,,230624_lax,女,小学,8,001,2023-06-24_16h22.26.389,nalin_IRAP,2023.1.2,119.9656418857924,
"恭喜，你已达成80%正确率，可以继续实验

~请按空格键进入测试阶段~",喜悦,"(0.0, -0.15)",j,,,,,,,,,0,0,0,0,2,20,68,16,,,,,,,,,,,,,,,,,,,,,,,,,,,,,,,,,,,,,,,,,,,,,,,,,,,,,,473.2835845000227,473.2835845000227,473.2835845000227,473.2835845000227,473.2835845000227,j,1,2.3255080999806523,475.6225663999794,,,,,,,,,,,,,,,,,,,,,,,230624_lax,女,小学,8,001,2023-06-24_16h22.26.389,nalin_IRAP,2023.1.2,119.9656418857924,
"恭喜，你已达成80%正确率，可以继续实验

~请按空格键进入测试阶段~",悲伤,"(0.0, -0.15)",f,,,,,,,,,0,0,0,0,2,21,69,21,,,,,,,,,,,,,,,,,,,,,,,,,,,,,,,,,,,,,,,,,,,,,,,,,,,,,,476.13237150001805,476.13237150001805,476.13237150001805,476.13237150001805,476.13237150001805,f,1,1.89428060001228,478.0383038999862,478.54169570002705,,,,,,,,,,,,,,,,,,,,,,230624_lax,女,小学,8,001,2023-06-24_16h22.26.389,nalin_IRAP,2023.1.2,119.9656418857924,
"恭喜，你已达成80%正确率，可以继续实验

~请按空格键进入测试阶段~",高兴,"(0.0, 0.3)",f,,,,,,,,,0,0,0,0,2,22,70,0,,,,,,,,,,,,,,,,,,,,,,,,,,,,,,,,,,,,,,,,,,,,,,,,,,,,,,478.54169570002705,478.54169570002705,478.54169570002705,478.54169570002705,478.54169570002705,f,1,2.1743026999756694,480.7328188000247,,,,,,,,,,,,,,,,,,,,,,,230624_lax,女,小学,8,001,2023-06-24_16h22.26.389,nalin_IRAP,2023.1.2,119.9656418857924,
"恭喜，你已达成80%正确率，可以继续实验

~请按空格键进入测试阶段~",高兴,"(0.0, -0.15)",j,,,,,,,,,0,0,0,0,2,23,71,12,,,,,,,,,,,,,,,,,,,,,,,,,,,,,,,,,,,,,,,,,,,,,,,,,,,,,,481.23948990000645,481.23948990000645,481.23948990000645,481.23948990000645,481.23948990000645,j,1,1.1544796000234783,482.40445069997804,482.90709489997244,,,,,,,,,,,,,,,,,,,,,,230624_lax,女,小学,8,001,2023-06-24_16h22.26.389,nalin_IRAP,2023.1.2,119.9656418857924,
"恭喜，你已达成80%正确率，可以继续实验

~请按空格键进入测试阶段~",欣喜,"(0.0, 0.3)",f,,,,,,,,,0,0,0,0,3,0,72,3,,,,,,,,,,,,,,,,,,,,,,,,,,,,,,,,,,,,,,,,,,,,,,,,,,,,,,482.90709489997244,482.90709489997244,482.90709489997244,482.90709489997244,482.90709489997244,f,1,2.694545600039419,485.61407050001435,,,,,,,,,,,,,,,,,,,,,,,230624_lax,女,小学,8,001,2023-06-24_16h22.26.389,nalin_IRAP,2023.1.2,119.9656418857924,
"恭喜，你已达成80%正确率，可以继续实验

~请按空格键进入测试阶段~",高兴,"(0.0, -0.15)",j,,,,,,,,,0,0,0,0,3,1,73,12,,,,,,,,,,,,,,,,,,,,,,,,,,,,,,,,,,,,,,,,,,,,,,,,,,,,,,486.12529589998303,486.12529589998303,486.12529589998303,486.12529589998303,486.12529589998303,j,1,1.5777718999888748,487.7127672000206,488.21439420001116,,,,,,,,,,,,,,,,,,,,,,230624_lax,女,小学,8,001,2023-06-24_16h22.26.389,nalin_IRAP,2023.1.2,119.9656418857924,
"恭喜，你已达成80%正确率，可以继续实验

~请按空格键进入测试阶段~",高兴,"(0.0, 0.3)",f,,,,,,,,,0,0,0,0,3,2,74,0,,,,,,,,,,,,,,,,,,,,,,,,,,,,,,,,,,,,,,,,,,,,,,,,,,,,,,488.21439420001116,488.21439420001116,488.21439420001116,488.21439420001116,488.21439420001116,f,1,1.187718900036998,489.4138336000033,489.91575059999013,,,,,,,,,,,,,,,,,,,,,,230624_lax,女,小学,8,001,2023-06-24_16h22.26.389,nalin_IRAP,2023.1.2,119.9656418857924,
"恭喜，你已达成80%正确率，可以继续实验

~请按空格键进入测试阶段~",愉快,"(0.0, -0.15)",j,,,,,,,,,0,0,0,0,3,3,75,17,,,,,,,,,,,,,,,,,,,,,,,,,,,,,,,,,,,,,,,,,,,,,,,,,,,,,,489.91575059999013,489.91575059999013,489.91575059999013,489.91575059999013,489.91575059999013,j,1,2.6164946000208147,492.5460384999751,493.0503489000257,,,,,,,,,,,,,,,,,,,,,,230624_lax,女,小学,8,001,2023-06-24_16h22.26.389,nalin_IRAP,2023.1.2,119.9656418857924,
"恭喜，你已达成80%正确率，可以继续实验

~请按空格键进入测试阶段~",愉悦,"(0.0, 0.3)",f,,,,,,,,,0,0,0,0,3,4,76,2,,,,,,,,,,,,,,,,,,,,,,,,,,,,,,,,,,,,,,,,,,,,,,,,,,,,,,493.0503489000257,493.0503489000257,493.0503489000257,493.0503489000257,493.0503489000257,f,1,1.689081399992574,494.75553969998145,,,,,,,,,,,,,,,,,,,,,,,230624_lax,女,小学,8,001,2023-06-24_16h22.26.389,nalin_IRAP,2023.1.2,119.9656418857924,
"恭喜，你已达成80%正确率，可以继续实验

~请按空格键进入测试阶段~",愉快,"(0.0, 0.3)",f,,,,,,,,,0,0,0,0,3,5,77,5,,,,,,,,,,,,,,,,,,,,,,,,,,,,,,,,,,,,,,,,,,,,,,,,,,,,,,495.2670737999724,495.2670737999724,495.2670737999724,495.2670737999724,495.2670737999724,f,1,1.3557618000195362,496.63778220000677,497.1411541000125,,,,,,,,,,,,,,,,,,,,,,230624_lax,女,小学,8,001,2023-06-24_16h22.26.389,nalin_IRAP,2023.1.2,119.9656418857924,
"恭喜，你已达成80%正确率，可以继续实验

~请按空格键进入测试阶段~",愉悦,"(0.0, -0.15)",j,,,,,,,,,0,0,0,0,3,6,78,14,,,,,,,,,,,,,,,,,,,,,,,,,,,,,,,,,,,,,,,,,,,,,,,,,,,,,,497.1411541000125,497.1411541000125,497.1411541000125,497.1411541000125,497.1411541000125,j,1,1.884355400048662,499.0375103999977,499.5395699000219,,,,,,,,,,,,,,,,,,,,,,230624_lax,女,小学,8,001,2023-06-24_16h22.26.389,nalin_IRAP,2023.1.2,119.9656418857924,
"恭喜，你已达成80%正确率，可以继续实验

~请按空格键进入测试阶段~",喜悦,"(0.0, 0.3)",f,,,,,,,,,0,0,0,0,3,7,79,4,,,,,,,,,,,,,,,,,,,,,,,,,,,,,,,,,,,,,,,,,,,,,,,,,,,,,,499.5395699000219,499.5395699000219,499.5395699000219,499.5395699000219,499.5395699000219,f,1,1.314277600031346,500.8627378999954,501.3667841000133,,,,,,,,,,,,,,,,,,,,,,230624_lax,女,小学,8,001,2023-06-24_16h22.26.389,nalin_IRAP,2023.1.2,119.9656418857924,
"恭喜，你已达成80%正确率，可以继续实验

~请按空格键进入测试阶段~",伤心,"(0.0, -0.15)",f,,,,,,,,,0,0,0,0,3,8,80,18,,,,,,,,,,,,,,,,,,,,,,,,,,,,,,,,,,,,,,,,,,,,,,,,,,,,,,501.3667841000133,501.3667841000133,501.3667841000133,501.3667841000133,501.3667841000133,f,1,1.8685463000438176,503.2458401999902,503.7503752000048,,,,,,,,,,,,,,,,,,,,,,230624_lax,女,小学,8,001,2023-06-24_16h22.26.389,nalin_IRAP,2023.1.2,119.9656418857924,
"恭喜，你已达成80%正确率，可以继续实验

~请按空格键进入测试阶段~",愁苦,"(0.0, 0.3)",j,,,,,,,,,0,0,0,0,3,9,81,11,,,,,,,,,,,,,,,,,,,,,,,,,,,,,,,,,,,,,,,,,,,,,,,,,,,,,,503.7503752000048,503.7503752000048,503.7503752000048,503.7503752000048,503.7503752000048,j,1,2.216884099994786,505.9817251000204,,,,,,,,,,,,,,,,,,,,,,,230624_lax,女,小学,8,001,2023-06-24_16h22.26.389,nalin_IRAP,2023.1.2,119.9656418857924,
"恭喜，你已达成80%正确率，可以继续实验

~请按空格键进入测试阶段~",喜悦,"(0.0, -0.15)",j,,,,,,,,,0,0,0,0,3,10,82,16,,,,,,,,,,,,,,,,,,,,,,,,,,,,,,,,,,,,,,,,,,,,,,,,,,,,,,506.4916020000237,506.4916020000237,506.4916020000237,506.4916020000237,506.4916020000237,j,1,26.873000199964736,533.3731903000153,,,,,,,,,,,,,,,,,,,,,,,230624_lax,女,小学,8,001,2023-06-24_16h22.26.389,nalin_IRAP,2023.1.2,119.9656418857924,
"恭喜，你已达成80%正确率，可以继续实验

~请按空格键进入测试阶段~",失落,"(0.0, -0.15)",f,,,,,,,,,0,0,0,0,3,11,83,19,,,,,,,,,,,,,,,,,,,,,,,,,,,,,,,,,,,,,,,,,,,,,,,,,,,,,,533.8841384000261,533.8841384000261,533.8841384000261,533.8841384000261,533.8841384000261,f,1,1.6097988999681547,535.5038729999796,536.006386300025,,,,,,,,,,,,,,,,,,,,,,230624_lax,女,小学,8,001,2023-06-24_16h22.26.389,nalin_IRAP,2023.1.2,119.9656418857924,
"恭喜，你已达成80%正确率，可以继续实验

~请按空格键进入测试阶段~",失落,"(0.0, 0.3)",j,,,,,,,,,0,0,0,0,3,12,84,7,,,,,,,,,,,,,,,,,,,,,,,,,,,,,,,,,,,,,,,,,,,,,,,,,,,,,,536.006386300025,536.006386300025,536.006386300025,536.006386300025,536.006386300025,j,1,3.947031599993352,539.962960099976,540.467853899987,,,,,,,,,,,,,,,,,,,,,,230624_lax,女,小学,8,001,2023-06-24_16h22.26.389,nalin_IRAP,2023.1.2,119.9656418857924,
"恭喜，你已达成80%正确率，可以继续实验

~请按空格键进入测试阶段~",愁苦,"(0.0, -0.15)",f,,,,,,,,,0,0,0,0,3,13,85,23,,,,,,,,,,,,,,,,,,,,,,,,,,,,,,,,,,,,,,,,,,,,,,,,,,,,,,540.467853899987,540.467853899987,540.467853899987,540.467853899987,540.467853899987,f,1,1.3755149999633431,541.8575404000003,,,,,,,,,,,,,,,,,,,,,,,230624_lax,女,小学,8,001,2023-06-24_16h22.26.389,nalin_IRAP,2023.1.2,119.9656418857924,
"恭喜，你已达成80%正确率，可以继续实验

~请按空格键进入测试阶段~",难过,"(0.0, -0.15)",f,,,,,,,,,0,0,0,0,3,14,86,20,,,,,,,,,,,,,,,,,,,,,,,,,,,,,,,,,,,,,,,,,,,,,,,,,,,,,,542.3661598999752,542.3661598999752,542.3661598999752,542.3661598999752,542.3661598999752,f,1,1.6933090999955311,544.0688006000128,,,,,,,,,,,,,,,,,,,,,,,230624_lax,女,小学,8,001,2023-06-24_16h22.26.389,nalin_IRAP,2023.1.2,119.9656418857924,
"恭喜，你已达成80%正确率，可以继续实验

~请按空格键进入测试阶段~",伤心,"(0.0, 0.3)",j,,,,,,,,,0,0,0,0,3,15,87,6,,,,,,,,,,,,,,,,,,,,,,,,,,,,,,,,,,,,,,,,,,,,,,,,,,,,,,544.5747956000268,544.5747956000268,544.5747956000268,544.5747956000268,544.5747956000268,j,1,1.5745495000155643,546.1628364999779,546.6676083999919,,,,,,,,,,,,,,,,,,,,,,230624_lax,女,小学,8,001,2023-06-24_16h22.26.389,nalin_IRAP,2023.1.2,119.9656418857924,
"恭喜，你已达成80%正确率，可以继续实验

~请按空格键进入测试阶段~",悲伤,"(0.0, -0.15)",f,,,,,,,,,0,0,0,0,3,16,88,21,,,,,,,,,,,,,,,,,,,,,,,,,,,,,,,,,,,,,,,,,,,,,,,,,,,,,,546.6676083999919,546.6676083999919,546.6676083999919,546.6676083999919,546.6676083999919,f,1,2.16292049997719,548.845865899988,549.3507190999808,,,,,,,,,,,,,,,,,,,,,,230624_lax,女,小学,8,001,2023-06-24_16h22.26.389,nalin_IRAP,2023.1.2,119.9656418857924,
"恭喜，你已达成80%正确率，可以继续实验

~请按空格键进入测试阶段~",欣喜,"(0.0, -0.15)",j,,,,,,,,,0,0,0,0,3,17,89,15,,,,,,,,,,,,,,,,,,,,,,,,,,,,,,,,,,,,,,,,,,,,,,,,,,,,,,549.3507190999808,549.3507190999808,549.3507190999808,549.3507190999808,549.3507190999808,j,1,1.7306356999906711,551.0905293999822,,,,,,,,,,,,,,,,,,,,,,,230624_lax,女,小学,8,001,2023-06-24_16h22.26.389,nalin_IRAP,2023.1.2,119.9656418857924,
"恭喜，你已达成80%正确率，可以继续实验

~请按空格键进入测试阶段~",忧郁,"(0.0, 0.3)",j,,,,,,,,,0,0,0,0,3,18,90,10,,,,,,,,,,,,,,,,,,,,,,,,,,,,,,,,,,,,,,,,,,,,,,,,,,,,,,551.5993701000116,551.5993701000116,551.5993701000116,551.5993701000116,551.5993701000116,j,1,2.0801680000149645,553.6942901000148,554.2006818000227,,,,,,,,,,,,,,,,,,,,,,230624_lax,女,小学,8,001,2023-06-24_16h22.26.389,nalin_IRAP,2023.1.2,119.9656418857924,
"恭喜，你已达成80%正确率，可以继续实验

~请按空格键进入测试阶段~",难过,"(0.0, 0.3)",j,,,,,,,,,0,0,0,0,3,19,91,8,,,,,,,,,,,,,,,,,,,,,,,,,,,,,,,,,,,,,,,,,,,,,,,,,,,,,,554.2006818000227,554.2006818000227,554.2006818000227,554.2006818000227,554.2006818000227,j,1,1.465143299952615,555.6752874000231,,,,,,,,,,,,,,,,,,,,,,,230624_lax,女,小学,8,001,2023-06-24_16h22.26.389,nalin_IRAP,2023.1.2,119.9656418857924,
"恭喜，你已达成80%正确率，可以继续实验

~请按空格键进入测试阶段~",悲伤,"(0.0, 0.3)",j,,,,,,,,,0,0,0,0,3,20,92,9,,,,,,,,,,,,,,,,,,,,,,,,,,,,,,,,,,,,,,,,,,,,,,,,,,,,,,556.1801666999818,556.1801666999818,556.1801666999818,556.1801666999818,556.1801666999818,j,1,1.0605731999967247,557.2487513999804,,,,,,,,,,,,,,,,,,,,,,,230624_lax,女,小学,8,001,2023-06-24_16h22.26.389,nalin_IRAP,2023.1.2,119.9656418857924,
"恭喜，你已达成80%正确率，可以继续实验

~请按空格键进入测试阶段~",快乐,"(0.0, -0.15)",j,,,,,,,,,0,0,0,0,3,21,93,13,,,,,,,,,,,,,,,,,,,,,,,,,,,,,,,,,,,,,,,,,,,,,,,,,,,,,,557.7584837999893,557.7584837999893,557.7584837999893,557.7584837999893,557.7584837999893,j,1,2.3632499999948777,560.1320484000025,,,,,,,,,,,,,,,,,,,,,,,230624_lax,女,小学,8,001,2023-06-24_16h22.26.389,nalin_IRAP,2023.1.2,119.9656418857924,
"恭喜，你已达成80%正确率，可以继续实验

~请按空格键进入测试阶段~",快乐,"(0.0, 0.3)",f,,,,,,,,,0,0,0,0,3,22,94,1,,,,,,,,,,,,,,,,,,,,,,,,,,,,,,,,,,,,,,,,,,,,,,,,,,,,,,560.6404879000038,560.6404879000038,560.6404879000038,560.6404879000038,560.6404879000038,f,1,1.6575712999911048,562.3149201999768,,,,,,,,,,,,,,,,,,,,,,,230624_lax,女,小学,8,001,2023-06-24_16h22.26.389,nalin_IRAP,2023.1.2,119.9656418857924,
"恭喜，你已达成80%正确率，可以继续实验

~请按空格键进入测试阶段~",忧郁,"(0.0, -0.15)",f,,,,,,,,,0,0,0,0,3,23,95,22,,,,,,,,,,,,,,,,,,,,,,,,,,,,,,,,,,,,,,,,,,,,,,,,,,,,,,562.825005199993,562.825005199993,562.825005199993,562.825005199993,562.825005199993,f,1,2.4044063000474125,565.2402220999938,,,,,,,,,,,,,,,,,,,,,,,230624_lax,女,小学,8,001,2023-06-24_16h22.26.389,nalin_IRAP,2023.1.2,119.9656418857924,
"恭喜，你已达成80%正确率，可以继续实验

~请按空格键进入测试阶段~",愉快,"(0.0, -0.15)",j,,,,,,,,,0,0,0,0,4,0,96,17,,,,,,,,,,,,,,,,,,,,,,,,,,,,,,,,,,,,,,,,,,,,,,,,,,,,,,565.7497735000215,565.7497735000215,565.7497735000215,565.7497735000215,565.7497735000215,j,1,2.125080000027083,567.8898173000198,,,,,,,,,,,,,,,,,,,,,,,230624_lax,女,小学,8,001,2023-06-24_16h22.26.389,nalin_IRAP,2023.1.2,119.9656418857924,
"恭喜，你已达成80%正确率，可以继续实验

~请按空格键进入测试阶段~",愉快,"(0.0, 0.3)",f,,,,,,,,,0,0,0,0,4,1,97,5,,,,,,,,,,,,,,,,,,,,,,,,,,,,,,,,,,,,,,,,,,,,,,,,,,,,,,568.3970740999794,568.3970740999794,568.3970740999794,568.3970740999794,568.3970740999794,f,1,1.5264053999562748,569.9372504000203,570.443231399986,,,,,,,,,,,,,,,,,,,,,,230624_lax,女,小学,8,001,2023-06-24_16h22.26.389,nalin_IRAP,2023.1.2,119.9656418857924,
"恭喜，你已达成80%正确率，可以继续实验

~请按空格键进入测试阶段~",悲伤,"(0.0, -0.15)",f,,,,,,,,,0,0,0,0,4,2,98,21,,,,,,,,,,,,,,,,,,,,,,,,,,,,,,,,,,,,,,,,,,,,,,,,,,,,,,570.443231399986,570.443231399986,570.443231399986,570.443231399986,570.443231399986,f,1,1.6971882000216283,572.1576115000062,,,,,,,,,,,,,,,,,,,,,,,230624_lax,女,小学,8,001,2023-06-24_16h22.26.389,nalin_IRAP,2023.1.2,119.9656418857924,
"恭喜，你已达成80%正确率，可以继续实验

~请按空格键进入测试阶段~",愁苦,"(0.0, 0.3)",j,,,,,,,,,0,0,0,0,4,3,99,11,,,,,,,,,,,,,,,,,,,,,,,,,,,,,,,,,,,,,,,,,,,,,,,,,,,,,,572.6662683999748,572.6662683999748,572.6662683999748,572.6662683999748,572.6662683999748,j,1,1.3124122999724932,573.9929321000236,,,,,,,,,,,,,,,,,,,,,,,230624_lax,女,小学,8,001,2023-06-24_16h22.26.389,nalin_IRAP,2023.1.2,119.9656418857924,
"恭喜，你已达成80%正确率，可以继续实验

~请按空格键进入测试阶段~",高兴,"(0.0, 0.3)",f,,,,,,,,,0,0,0,0,4,4,100,0,,,,,,,,,,,,,,,,,,,,,,,,,,,,,,,,,,,,,,,,,,,,,,,,,,,,,,574.4997066999786,574.4997066999786,574.4997066999786,574.4997066999786,574.4997066999786,f,1,1.4988505999790505,576.0073631000123,,,,,,,,,,,,,,,,,,,,,,,230624_lax,女,小学,8,001,2023-06-24_16h22.26.389,nalin_IRAP,2023.1.2,119.9656418857924,
"恭喜，你已达成80%正确率，可以继续实验

~请按空格键进入测试阶段~",伤心,"(0.0, -0.15)",f,,,,,,,,,0,0,0,0,4,5,101,18,,,,,,,,,,,,,,,,,,,,,,,,,,,,,,,,,,,,,,,,,,,,,,,,,,,,,,576.5162709999713,576.5162709999713,576.5162709999713,576.5162709999713,576.5162709999713,f,1,0.846544400032144,577.3749889999744,,,,,,,,,,,,,,,,,,,,,,,230624_lax,女,小学,8,001,2023-06-24_16h22.26.389,nalin_IRAP,2023.1.2,119.9656418857924,
"恭喜，你已达成80%正确率，可以继续实验

~请按空格键进入测试阶段~",忧郁,"(0.0, 0.3)",j,,,,,,,,,0,0,0,0,4,6,102,10,,,,,,,,,,,,,,,,,,,,,,,,,,,,,,,,,,,,,,,,,,,,,,,,,,,,,,577.882397999987,577.882397999987,577.882397999987,577.882397999987,577.882397999987,j,1,4.521540499990806,582.4212391999899,582.9255900999997,,,,,,,,,,,,,,,,,,,,,,230624_lax,女,小学,8,001,2023-06-24_16h22.26.389,nalin_IRAP,2023.1.2,119.9656418857924,
"恭喜，你已达成80%正确率，可以继续实验

~请按空格键进入测试阶段~",愉悦,"(0.0, 0.3)",f,,,,,,,,,0,0,0,0,4,7,103,2,,,,,,,,,,,,,,,,,,,,,,,,,,,,,,,,,,,,,,,,,,,,,,,,,,,,,,582.9255900999997,582.9255900999997,582.9255900999997,582.9255900999997,582.9255900999997,f,1,5.138590799993835,588.0731418000069,,,,,,,,,,,,,,,,,,,,,,,230624_lax,女,小学,8,001,2023-06-24_16h22.26.389,nalin_IRAP,2023.1.2,119.9656418857924,
"恭喜，你已达成80%正确率，可以继续实验

~请按空格键进入测试阶段~",欣喜,"(0.0, -0.15)",j,,,,,,,,,0,0,0,0,4,8,104,15,,,,,,,,,,,,,,,,,,,,,,,,,,,,,,,,,,,,,,,,,,,,,,,,,,,,,,588.5833127999795,588.5833127999795,588.5833127999795,588.5833127999795,588.5833127999795,j,1,2.260717700002715,590.8609175999882,591.3681127000018,,,,,,,,,,,,,,,,,,,,,,230624_lax,女,小学,8,001,2023-06-24_16h22.26.389,nalin_IRAP,2023.1.2,119.9656418857924,
"恭喜，你已达成80%正确率，可以继续实验

~请按空格键进入测试阶段~",喜悦,"(0.0, 0.3)",f,,,,,,,,,0,0,0,0,4,9,105,4,,,,,,,,,,,,,,,,,,,,,,,,,,,,,,,,,,,,,,,,,,,,,,,,,,,,,,591.3681127000018,591.3681127000018,591.3681127000018,591.3681127000018,591.3681127000018,f,1,5.5447495999978855,596.9288675999851,597.4338447999908,,,,,,,,,,,,,,,,,,,,,,230624_lax,女,小学,8,001,2023-06-24_16h22.26.389,nalin_IRAP,2023.1.2,119.9656418857924,
"恭喜，你已达成80%正确率，可以继续实验

~请按空格键进入测试阶段~",愉悦,"(0.0, -0.15)",j,,,,,,,,,0,0,0,0,4,10,106,14,,,,,,,,,,,,,,,,,,,,,,,,,,,,,,,,,,,,,,,,,,,,,,,,,,,,,,597.4338447999908,597.4338447999908,597.4338447999908,597.4338447999908,597.4338447999908,f,0,1.8615450000506826,599.307146999985,,,,,,,,,,,,,,,,,,,,,,,230624_lax,女,小学,8,001,2023-06-24_16h22.26.389,nalin_IRAP,2023.1.2,119.9656418857924,
"恭喜，你已达成80%正确率，可以继续实验

~请按空格键进入测试阶段~",伤心,"(0.0, 0.3)",j,,,,,,,,,0,0,0,0,4,11,107,6,,,,,,,,,,,,,,,,,,,,,,,,,,,,,,,,,,,,,,,,,,,,,,,,,,,,,,599.816846599977,599.816846599977,599.816846599977,599.816846599977,599.816846599977,j,1,1.4601240999763831,601.2907190999831,,,,,,,,,,,,,,,,,,,,,,,230624_lax,女,小学,8,001,2023-06-24_16h22.26.389,nalin_IRAP,2023.1.2,119.9656418857924,
"恭喜，你已达成80%正确率，可以继续实验

~请按空格键进入测试阶段~",难过,"(0.0, -0.15)",f,,,,,,,,,0,0,0,0,4,12,108,20,,,,,,,,,,,,,,,,,,,,,,,,,,,,,,,,,,,,,,,,,,,,,,,,,,,,,,601.8000021000043,601.8000021000043,601.8000021000043,601.8000021000043,601.8000021000043,f,1,2.0726577000459656,603.888689799991,,,,,,,,,,,,,,,,,,,,,,,230624_lax,女,小学,8,001,2023-06-24_16h22.26.389,nalin_IRAP,2023.1.2,119.9656418857924,
"恭喜，你已达成80%正确率，可以继续实验

~请按空格键进入测试阶段~",快乐,"(0.0, -0.15)",j,,,,,,,,,0,0,0,0,4,13,109,13,,,,,,,,,,,,,,,,,,,,,,,,,,,,,,,,,,,,,,,,,,,,,,,,,,,,,,604.4003900000243,604.4003900000243,604.4003900000243,604.4003900000243,604.4003900000243,f,0,1.5182201000279747,605.9312504000263,,,,,,,,,,,,,,,,,,,,,,,230624_lax,女,小学,8,001,2023-06-24_16h22.26.389,nalin_IRAP,2023.1.2,119.9656418857924,
"恭喜，你已达成80%正确率，可以继续实验

~请按空格键进入测试阶段~",高兴,"(0.0, -0.15)",j,,,,,,,,,0,0,0,0,4,14,110,12,,,,,,,,,,,,,,,,,,,,,,,,,,,,,,,,,,,,,,,,,,,,,,,,,,,,,,606.4417022999842,606.4417022999842,606.4417022999842,606.4417022999842,606.4417022999842,j,1,3.0400549999903888,609.4928007000126,,,,,,,,,,,,,,,,,,,,,,,230624_lax,女,小学,8,001,2023-06-24_16h22.26.389,nalin_IRAP,2023.1.2,119.9656418857924,
"恭喜，你已达成80%正确率，可以继续实验

~请按空格键进入测试阶段~",快乐,"(0.0, 0.3)",f,,,,,,,,,0,0,0,0,4,15,111,1,,,,,,,,,,,,,,,,,,,,,,,,,,,,,,,,,,,,,,,,,,,,,,,,,,,,,,610.0001121999812,610.0001121999812,610.0001121999812,610.0001121999812,610.0001121999812,f,1,1.2728135000215843,611.282349599991,,,,,,,,,,,,,,,,,,,,,,,230624_lax,女,小学,8,001,2023-06-24_16h22.26.389,nalin_IRAP,2023.1.2,119.9656418857924,
"恭喜，你已达成80%正确率，可以继续实验

~请按空格键进入测试阶段~",失落,"(0.0, -0.15)",f,,,,,,,,,0,0,0,0,4,16,112,19,,,,,,,,,,,,,,,,,,,,,,,,,,,,,,,,,,,,,,,,,,,,,,,,,,,,,,611.7911152999732,611.7911152999732,611.7911152999732,611.7911152999732,611.7911152999732,f,1,3.401342299999669,615.2074457000126,,,,,,,,,,,,,,,,,,,,,,,230624_lax,女,小学,8,001,2023-06-24_16h22.26.389,nalin_IRAP,2023.1.2,119.9656418857924,
"恭喜，你已达成80%正确率，可以继续实验

~请按空格键进入测试阶段~",愁苦,"(0.0, -0.15)",f,,,,,,,,,0,0,0,0,4,17,113,23,,,,,,,,,,,,,,,,,,,,,,,,,,,,,,,,,,,,,,,,,,,,,,,,,,,,,,615.7165470999898,615.7165470999898,615.7165470999898,615.7165470999898,615.7165470999898,f,1,1.2372168999863788,616.9621433999855,617.4676424000063,,,,,,,,,,,,,,,,,,,,,,230624_lax,女,小学,8,001,2023-06-24_16h22.26.389,nalin_IRAP,2023.1.2,119.9656418857924,
"恭喜，你已达成80%正确率，可以继续实验

~请按空格键进入测试阶段~",喜悦,"(0.0, -0.15)",j,,,,,,,,,0,0,0,0,4,18,114,16,,,,,,,,,,,,,,,,,,,,,,,,,,,,,,,,,,,,,,,,,,,,,,,,,,,,,,617.4676424000063,617.4676424000063,617.4676424000063,617.4676424000063,617.4676424000063,j,1,1.3253852999769151,618.808347299986,,,,,,,,,,,,,,,,,,,,,,,230624_lax,女,小学,8,001,2023-06-24_16h22.26.389,nalin_IRAP,2023.1.2,119.9656418857924,
"恭喜，你已达成80%正确率，可以继续实验

~请按空格键进入测试阶段~",难过,"(0.0, 0.3)",j,,,,,,,,,0,0,0,0,4,19,115,8,,,,,,,,,,,,,,,,,,,,,,,,,,,,,,,,,,,,,,,,,,,,,,,,,,,,,,619.3167091999785,619.3167091999785,619.3167091999785,619.3167091999785,619.3167091999785,j,1,2.228016699955333,621.5597010999918,,,,,,,,,,,,,,,,,,,,,,,230624_lax,女,小学,8,001,2023-06-24_16h22.26.389,nalin_IRAP,2023.1.2,119.9656418857924,
"恭喜，你已达成80%正确率，可以继续实验

~请按空格键进入测试阶段~",悲伤,"(0.0, 0.3)",j,,,,,,,,,0,0,0,0,4,20,116,9,,,,,,,,,,,,,,,,,,,,,,,,,,,,,,,,,,,,,,,,,,,,,,,,,,,,,,622.0659900999744,622.0659900999744,622.0659900999744,622.0659900999744,622.0659900999744,j,1,1.6126159999985248,623.6910648000194,,,,,,,,,,,,,,,,,,,,,,,230624_lax,女,小学,8,001,2023-06-24_16h22.26.389,nalin_IRAP,2023.1.2,119.9656418857924,
"恭喜，你已达成80%正确率，可以继续实验

~请按空格键进入测试阶段~",失落,"(0.0, 0.3)",j,,,,,,,,,0,0,0,0,4,21,117,7,,,,,,,,,,,,,,,,,,,,,,,,,,,,,,,,,,,,,,,,,,,,,,,,,,,,,,624.1994364000275,624.1994364000275,624.1994364000275,624.1994364000275,624.1994364000275,j,1,1.1100691000465304,625.321572099987,625.8247401000117,,,,,,,,,,,,,,,,,,,,,,230624_lax,女,小学,8,001,2023-06-24_16h22.26.389,nalin_IRAP,2023.1.2,119.9656418857924,
"恭喜，你已达成80%正确率，可以继续实验

~请按空格键进入测试阶段~",忧郁,"(0.0, -0.15)",f,,,,,,,,,0,0,0,0,4,22,118,22,,,,,,,,,,,,,,,,,,,,,,,,,,,,,,,,,,,,,,,,,,,,,,,,,,,,,,625.8247401000117,625.8247401000117,625.8247401000117,625.8247401000117,625.8247401000117,f,1,2.020273800007999,627.8584944999893,,,,,,,,,,,,,,,,,,,,,,,230624_lax,女,小学,8,001,2023-06-24_16h22.26.389,nalin_IRAP,2023.1.2,119.9656418857924,
"恭喜，你已达成80%正确率，可以继续实验

~请按空格键进入测试阶段~",欣喜,"(0.0, 0.3)",f,,,,,,,,,0,0,0,0,4,23,119,3,,,,,,,,,,,,,,,,,,,,,,,,,,,,,,,,,,,,,,,,,,,,,,,,,,,,,,628.3660715000005,628.3660715000005,628.3660715000005,628.3660715000005,628.3660715000005,f,1,1.4585476000211202,629.8332160999998,,,,,,,,,,,,,,,,,,,,,,,230624_lax,女,小学,8,001,2023-06-24_16h22.26.389,nalin_IRAP,2023.1.2,119.9656418857924,
"恭喜，你已达成80%正确率，可以继续实验

~请按空格键进入测试阶段~",愉快,"(0.0, -0.15)",j,,,,,,,,,0,0,0,0,5,0,120,17,,,,,,,,,,,,,,,,,,,,,,,,,,,,,,,,,,,,,,,,,,,,,,,,,,,,,,630.3411894000019,630.3411894000019,630.3411894000019,630.3411894000019,630.3411894000019,j,1,2.4200648000114597,632.7755567000131,,,,,,,,,,,,,,,,,,,,,,,230624_lax,女,小学,8,001,2023-06-24_16h22.26.389,nalin_IRAP,2023.1.2,119.9656418857924,
"恭喜，你已达成80%正确率，可以继续实验

~请按空格键进入测试阶段~",悲伤,"(0.0, -0.15)",f,,,,,,,,,0,0,0,0,5,1,121,21,,,,,,,,,,,,,,,,,,,,,,,,,,,,,,,,,,,,,,,,,,,,,,,,,,,,,,633.2835717999842,633.2835717999842,633.2835717999842,633.2835717999842,633.2835717999842,f,1,6.420645600010175,639.7179898999748,,,,,,,,,,,,,,,,,,,,,,,230624_lax,女,小学,8,001,2023-06-24_16h22.26.389,nalin_IRAP,2023.1.2,119.9656418857924,
"恭喜，你已达成80%正确率，可以继续实验

~请按空格键进入测试阶段~",,,,,,,,,,,,0,0,0,0,,,,,,,,,,,,,,,,,,,,,,,,,,,,,,,,,,,,,,,,,,,,,,,,,,,,,,,,,,,,,,,,,,,,,,,,,,,,,,,,,,,,,,,,,230624_lax,女,小学,8,001,2023-06-24_16h22.26.389,nalin_IRAP,2023.1.2,119.9656418857924,
,,,,,,,,,,,,,,,,,,,,,,,,,,,,,,,,,,,,,,,,,,,,,,,,,,,,,,,,,,,,,,,,,,,,,,,,,,,,,,,,,,,640.2319570999825,640.2319570999825,640.2319570999825,640.2319570999825,640.2319570999825,640.2319570999825,640.2319570999825,640.2319570999825,640.2319570999825,640.2319570999825,640.2319570999825,640.2319570999825,640.2319570999825,space,268.25953139999183,,,,,,,230624_lax,女,小学,8,001,2023-06-24_16h22.26.389,nalin_IRAP,2023.1.2,119.9656418857924,
~请按空格键进入练习阶段~,愉快,"(0.0, -0.15)",f,,,,,,,,,,,,,,,,,0,0,0,0,0,0,0,17,,,,,,,,,,,,,,,,,,,,,,,,,,,,908.5136023000232,908.5136023000232,space,5.816615600022487,914.3560578000033,914.3560578000033,914.3560578000033,914.3560578000033,914.3560578000033,f,1,9.844179300009273,,,,,,,,,,,,,,,,,,,,,,,,,,,,,,,,924.2125524000148,,,,,,230624_lax,女,小学,8,001,2023-06-24_16h22.26.389,nalin_IRAP,2023.1.2,119.9656418857924,
~请按空格键进入练习阶段~,忧郁,"(0.0, 0.3)",f,,,,,,,,,,,,,,,,,0,0,0,0,0,1,1,10,,,,,,,,,,,,,,,,,,,,,,,,,,,,,,,,924.7236705999821,924.7236705999821,924.7236705999821,924.7236705999821,924.7236705999821,f,1,5.971204000001308,,,,,,,,,,,,,,,,,,,,,,,,,,,,,,,,930.7041797999991,,,,,,230624_lax,女,小学,8,001,2023-06-24_16h22.26.389,nalin_IRAP,2023.1.2,119.9656418857924,
~请按空格键进入练习阶段~,失落,"(0.0, 0.3)",f,,,,,,,,,,,,,,,,,0,0,0,0,0,2,2,7,,,,,,,,,,,,,,,,,,,,,,,,,,,,,,,,931.2154787000036,931.2154787000036,931.2154787000036,931.2154787000036,931.2154787000036,f,1,2.805694599985145,,,,,,,,,,,,,,,,,,,,,,,,,,,,,,,,934.0289975000196,,,,,,230624_lax,女,小学,8,001,2023-06-24_16h22.26.389,nalin_IRAP,2023.1.2,119.9656418857924,
~请按空格键进入练习阶段~,悲伤,"(0.0, -0.15)",j,,,,,,,,,,,,,,,,,0,0,0,0,0,3,3,21,,,,,,,,,,,,,,,,,,,,,,,,,,,,,,,,934.5398175999871,934.5398175999871,934.5398175999871,934.5398175999871,934.5398175999871,j,1,4.097221300005913,,,,,,,,,,,,,,,,,,,,,,,,,,,,,,,,938.6528370999731,939.1569769000052,,,,,230624_lax,女,小学,8,001,2023-06-24_16h22.26.389,nalin_IRAP,2023.1.2,119.9656418857924,
~请按空格键进入练习阶段~,欣喜,"(0.0, -0.15)",f,,,,,,,,,,,,,,,,,0,0,0,0,0,4,4,15,,,,,,,,,,,,,,,,,,,,,,,,,,,,,,,,939.1569769000052,939.1569769000052,939.1569769000052,939.1569769000052,939.1569769000052,f,1,4.945202599978074,,,,,,,,,,,,,,,,,,,,,,,,,,,,,,,,944.111055699992,944.6152686999994,,,,,230624_lax,女,小学,8,001,2023-06-24_16h22.26.389,nalin_IRAP,2023.1.2,119.9656418857924,
~请按空格键进入练习阶段~,愉快,"(0.0, 0.3)",j,,,,,,,,,,,,,,,,,0,0,0,0,0,5,5,5,,,,,,,,,,,,,,,,,,,,,,,,,,,,,,,,944.6152686999994,944.6152686999994,944.6152686999994,944.6152686999994,944.6152686999994,j,1,3.3360866000293754,,,,,,,,,,,,,,,,,,,,,,,,,,,,,,,,947.9628978000255,,,,,,230624_lax,女,小学,8,001,2023-06-24_16h22.26.389,nalin_IRAP,2023.1.2,119.9656418857924,
~请按空格键进入练习阶段~,高兴,"(0.0, 0.3)",j,,,,,,,,,,,,,,,,,0,0,0,0,0,6,6,0,,,,,,,,,,,,,,,,,,,,,,,,,,,,,,,,948.473407100013,948.473407100013,948.473407100013,948.473407100013,948.473407100013,j,1,1.7826044000103138,,,,,,,,,,,,,,,,,,,,,,,,,,,,,,,,950.2644722000114,,,,,,230624_lax,女,小学,8,001,2023-06-24_16h22.26.389,nalin_IRAP,2023.1.2,119.9656418857924,
~请按空格键进入练习阶段~,伤心,"(0.0, 0.3)",f,,,,,,,,,,,,,,,,,0,0,0,0,0,7,7,6,,,,,,,,,,,,,,,,,,,,,,,,,,,,,,,,950.7731566000148,950.7731566000148,950.7731566000148,950.7731566000148,950.7731566000148,f,1,2.1339215000043623,,,,,,,,,,,,,,,,,,,,,,,,,,,,,,,,952.9191939000157,953.4236141999718,,,,,230624_lax,女,小学,8,001,2023-06-24_16h22.26.389,nalin_IRAP,2023.1.2,119.9656418857924,
~请按空格键进入练习阶段~,失落,"(0.0, -0.15)",j,,,,,,,,,,,,,,,,,0,0,0,0,0,8,8,19,,,,,,,,,,,,,,,,,,,,,,,,,,,,,,,,953.4236141999718,953.4236141999718,953.4236141999718,953.4236141999718,953.4236141999718,j,1,4.3882890999666415,,,,,,,,,,,,,,,,,,,,,,,,,,,,,,,,957.8207484000013,,,,,,230624_lax,女,小学,8,001,2023-06-24_16h22.26.389,nalin_IRAP,2023.1.2,119.9656418857924,
~请按空格键进入练习阶段~,快乐,"(0.0, 0.3)",j,,,,,,,,,,,,,,,,,0,0,0,0,0,9,9,1,,,,,,,,,,,,,,,,,,,,,,,,,,,,,,,,958.3315445000189,958.3315445000189,958.3315445000189,958.3315445000189,958.3315445000189,j,1,2.5186258999747224,,,,,,,,,,,,,,,,,,,,,,,,,,,,,,,,960.8610460999771,961.3665901999921,,,,,230624_lax,女,小学,8,001,2023-06-24_16h22.26.389,nalin_IRAP,2023.1.2,119.9656418857924,
~请按空格键进入练习阶段~,愉悦,"(0.0, 0.3)",j,,,,,,,,,,,,,,,,,0,0,0,0,0,10,10,2,,,,,,,,,,,,,,,,,,,,,,,,,,,,,,,,961.3665901999921,961.3665901999921,961.3665901999921,961.3665901999921,961.3665901999921,j,1,3.339032399991993,,,,,,,,,,,,,,,,,,,,,,,,,,,,,,,,964.7133381000021,,,,,,230624_lax,女,小学,8,001,2023-06-24_16h22.26.389,nalin_IRAP,2023.1.2,119.9656418857924,
~请按空格键进入练习阶段~,忧郁,"(0.0, -0.15)",j,,,,,,,,,,,,,,,,,0,0,0,0,0,11,11,22,,,,,,,,,,,,,,,,,,,,,,,,,,,,,,,,965.2230637000175,965.2230637000175,965.2230637000175,965.2230637000175,965.2230637000175,j,1,4.577156400016975,,,,,,,,,,,,,,,,,,,,,,,,,,,,,,,,969.810865300009,970.3153788999771,,,,,230624_lax,女,小学,8,001,2023-06-24_16h22.26.389,nalin_IRAP,2023.1.2,119.9656418857924,
~请按空格键进入练习阶段~,高兴,"(0.0, -0.15)",f,,,,,,,,,,,,,,,,,0,0,0,0,0,12,12,12,,,,,,,,,,,,,,,,,,,,,,,,,,,,,,,,970.3153788999771,970.3153788999771,970.3153788999771,970.3153788999771,970.3153788999771,f,1,4.470942399988417,,,,,,,,,,,,,,,,,,,,,,,,,,,,,,,,974.7948369000223,975.29791199998,,,,,230624_lax,女,小学,8,001,2023-06-24_16h22.26.389,nalin_IRAP,2023.1.2,119.9656418857924,
~请按空格键进入练习阶段~,喜悦,"(0.0, 0.3)",j,,,,,,,,,,,,,,,,,0,0,0,0,0,13,13,4,,,,,,,,,,,,,,,,,,,,,,,,,,,,,,,,975.29791199998,975.29791199998,975.29791199998,975.29791199998,975.29791199998,j,1,3.0462236999883316,,,,,,,,,,,,,,,,,,,,,,,,,,,,,,,,978.3524103999953,978.8569223000086,,,,,230624_lax,女,小学,8,001,2023-06-24_16h22.26.389,nalin_IRAP,2023.1.2,119.9656418857924,
~请按空格键进入练习阶段~,快乐,"(0.0, -0.15)",f,,,,,,,,,,,,,,,,,0,0,0,0,0,14,14,13,,,,,,,,,,,,,,,,,,,,,,,,,,,,,,,,978.8569223000086,978.8569223000086,978.8569223000086,978.8569223000086,978.8569223000086,f,1,2.764186999993399,,,,,,,,,,,,,,,,,,,,,,,,,,,,,,,,981.6378480999847,,,,,,230624_lax,女,小学,8,001,2023-06-24_16h22.26.389,nalin_IRAP,2023.1.2,119.9656418857924,
~请按空格键进入练习阶段~,伤心,"(0.0, -0.15)",j,,,,,,,,,,,,,,,,,0,0,0,0,0,15,15,18,,,,,,,,,,,,,,,,,,,,,,,,,,,,,,,,982.1467070999788,982.1467070999788,982.1467070999788,982.1467070999788,982.1467070999788,j,1,5.41732199996477,,,,,,,,,,,,,,,,,,,,,,,,,,,,,,,,987.5781598999747,988.0808454999933,,,,,230624_lax,女,小学,8,001,2023-06-24_16h22.26.389,nalin_IRAP,2023.1.2,119.9656418857924,
~请按空格键进入练习阶段~,难过,"(0.0, 0.3)",f,,,,,,,,,,,,,,,,,0,0,0,0,0,16,16,8,,,,,,,,,,,,,,,,,,,,,,,,,,,,,,,,988.0808454999933,988.0808454999933,988.0808454999933,988.0808454999933,988.0808454999933,f,1,4.624645999982022,,,,,,,,,,,,,,,,,,,,,,,,,,,,,,,,992.7188654000056,993.2236679000198,,,,,230624_lax,女,小学,8,001,2023-06-24_16h22.26.389,nalin_IRAP,2023.1.2,119.9656418857924,
~请按空格键进入练习阶段~,愁苦,"(0.0, 0.3)",f,,,,,,,,,,,,,,,,,0,0,0,0,0,17,17,11,,,,,,,,,,,,,,,,,,,,,,,,,,,,,,,,993.2236679000198,993.2236679000198,993.2236679000198,993.2236679000198,993.2236679000198,f,1,3.3435966999968514,,,,,,,,,,,,,,,,,,,,,,,,,,,,,,,,996.5826584000024,,,,,,230624_lax,女,小学,8,001,2023-06-24_16h22.26.389,nalin_IRAP,2023.1.2,119.9656418857924,
~请按空格键进入练习阶段~,愁苦,"(0.0, -0.15)",j,,,,,,,,,,,,,,,,,0,0,0,0,0,18,18,23,,,,,,,,,,,,,,,,,,,,,,,,,,,,,,,,997.0870746999863,997.0870746999863,997.0870746999863,997.0870746999863,997.0870746999863,j,1,2.808564300008584,,,,,,,,,,,,,,,,,,,,,,,,,,,,,,,,999.912358600006,,,,,,230624_lax,女,小学,8,001,2023-06-24_16h22.26.389,nalin_IRAP,2023.1.2,119.9656418857924,
~请按空格键进入练习阶段~,欣喜,"(0.0, 0.3)",j,,,,,,,,,,,,,,,,,0,0,0,0,0,19,19,3,,,,,,,,,,,,,,,,,,,,,,,,,,,,,,,,1000.4248337000026,1000.4248337000026,1000.4248337000026,1000.4248337000026,1000.4248337000026,j,1,9.176069499982987,,,,,,,,,,,,,,,,,,,,,,,,,,,,,,,,1009.6144910000148,,,,,,230624_lax,女,小学,8,001,2023-06-24_16h22.26.389,nalin_IRAP,2023.1.2,119.9656418857924,
~请按空格键进入练习阶段~,,,,,,,,,,,,,,,,,,,,0,0,0,0,,,,,,,,,,,,,,,,,,,,,,,,,,,,,,,,,,,,,,,,,,,,,,,,,,,,,,,,,,,,,,,,,,,,,,,,,,,,,,,,,230624_lax,女,小学,8,001,2023-06-24_16h22.26.389,nalin_IRAP,2023.1.2,119.9656418857924,
"恭喜，你已达成80%正确率，可以继续实验

~请按空格键进入测试阶段~",愉悦,"(0.0, 0.3)",j,,,,,,,,,,,,,,,,,,,,,,,,,0,0,0,0,0,0,0,2,,,,,,,,,,,,,,,,,,,,,,,,,,,,,,,,,,1010.1261598999845,1010.1261598999845,space,20.832121799991,1030.9817791000241,1030.9817791000241,1030.9817791000241,1030.9817791000241,1030.9817791000241,j,1,14.511660800024401,,,,,,,,,,,,,,,,,,,,1045.5051351999864,,,,230624_lax,女,小学,8,001,2023-06-24_16h22.26.389,nalin_IRAP,2023.1.2,119.9656418857924,
"恭喜，你已达成80%正确率，可以继续实验

~请按空格键进入测试阶段~",喜悦,"(0.0, -0.15)",f,,,,,,,,,,,,,,,,,,,,,,,,,0,0,0,0,0,1,1,16,,,,,,,,,,,,,,,,,,,,,,,,,,,,,,,,,,,,,,1046.014448300004,1046.014448300004,1046.014448300004,1046.014448300004,1046.014448300004,f,1,8.56743200001074,,,,,,,,,,,,,,,,,,,,1054.5963743000175,,,,230624_lax,女,小学,8,001,2023-06-24_16h22.26.389,nalin_IRAP,2023.1.2,119.9656418857924,
"恭喜，你已达成80%正确率，可以继续实验

~请按空格键进入测试阶段~",高兴,"(0.0, 0.3)",j,,,,,,,,,,,,,,,,,,,,,,,,,0,0,0,0,0,2,2,0,,,,,,,,,,,,,,,,,,,,,,,,,,,,,,,,,,,,,,1055.1061604000279,1055.1061604000279,1055.1061604000279,1055.1061604000279,1055.1061604000279,j,1,2.3763205999857746,,,,,,,,,,,,,,,,,,,,1057.4957672000164,,,,230624_lax,女,小学,8,001,2023-06-24_16h22.26.389,nalin_IRAP,2023.1.2,119.9656418857924,
"恭喜，你已达成80%正确率，可以继续实验

~请按空格键进入测试阶段~",忧郁,"(0.0, 0.3)",f,,,,,,,,,,,,,,,,,,,,,,,,,0,0,0,0,0,3,3,10,,,,,,,,,,,,,,,,,,,,,,,,,,,,,,,,,,,,,,1058.0057369000278,1058.0057369000278,1058.0057369000278,1058.0057369000278,1058.0057369000278,f,1,2.9523399000172503,,,,,,,,,,,,,,,,,,,,1060.966644399974,,,,230624_lax,女,小学,8,001,2023-06-24_16h22.26.389,nalin_IRAP,2023.1.2,119.9656418857924,
"恭喜，你已达成80%正确率，可以继续实验

~请按空格键进入测试阶段~",难过,"(0.0, 0.3)",f,,,,,,,,,,,,,,,,,,,,,,,,,0,0,0,0,0,4,4,8,,,,,,,,,,,,,,,,,,,,,,,,,,,,,,,,,,,,,,1061.472925500013,1061.472925500013,1061.472925500013,1061.472925500013,1061.472925500013,f,1,2.8393520999816246,,,,,,,,,,,,,,,,,,,,1064.3266579000046,1064.8335317000165,,,230624_lax,女,小学,8,001,2023-06-24_16h22.26.389,nalin_IRAP,2023.1.2,119.9656418857924,
"恭喜，你已达成80%正确率，可以继续实验

~请按空格键进入测试阶段~",失落,"(0.0, -0.15)",j,,,,,,,,,,,,,,,,,,,,,,,,,0,0,0,0,0,5,5,19,,,,,,,,,,,,,,,,,,,,,,,,,,,,,,,,,,,,,,1064.8335317000165,1064.8335317000165,1064.8335317000165,1064.8335317000165,1064.8335317000165,j,1,2.6533246000180952,,,,,,,,,,,,,,,,,,,,1067.5032024999964,1068.007609400025,,,230624_lax,女,小学,8,001,2023-06-24_16h22.26.389,nalin_IRAP,2023.1.2,119.9656418857924,
"恭喜，你已达成80%正确率，可以继续实验

~请按空格键进入测试阶段~",欣喜,"(0.0, -0.15)",f,,,,,,,,,,,,,,,,,,,,,,,,,0,0,0,0,0,6,6,15,,,,,,,,,,,,,,,,,,,,,,,,,,,,,,,,,,,,,,1068.007609400025,1068.007609400025,1068.007609400025,1068.007609400025,1068.007609400025,f,1,4.560440299974289,,,,,,,,,,,,,,,,,,,,1072.575529600028,1073.0825319000287,,,230624_lax,女,小学,8,001,2023-06-24_16h22.26.389,nalin_IRAP,2023.1.2,119.9656418857924,
"恭喜，你已达成80%正确率，可以继续实验

~请按空格键进入测试阶段~",愁苦,"(0.0, -0.15)",j,,,,,,,,,,,,,,,,,,,,,,,,,0,0,0,0,0,7,7,23,,,,,,,,,,,,,,,,,,,,,,,,,,,,,,,,,,,,,,1073.0825319000287,1073.0825319000287,1073.0825319000287,1073.0825319000287,1073.0825319000287,j,1,3.6128458000021055,,,,,,,,,,,,,,,,,,,,1076.7117895000265,,,,230624_lax,女,小学,8,001,2023-06-24_16h22.26.389,nalin_IRAP,2023.1.2,119.9656418857924,
"恭喜，你已达成80%正确率，可以继续实验

~请按空格键进入测试阶段~",愉快,"(0.0, -0.15)",f,,,,,,,,,,,,,,,,,,,,,,,,,0,0,0,0,0,8,8,17,,,,,,,,,,,,,,,,,,,,,,,,,,,,,,,,,,,,,,1077.2231523999944,1077.2231523999944,1077.2231523999944,1077.2231523999944,1077.2231523999944,f,1,2.7647991999983788,,,,,,,,,,,,,,,,,,,,1079.9952699000132,,,,230624_lax,女,小学,8,001,2023-06-24_16h22.26.389,nalin_IRAP,2023.1.2,119.9656418857924,
"恭喜，你已达成80%正确率，可以继续实验

~请按空格键进入测试阶段~",喜悦,"(0.0, 0.3)",j,,,,,,,,,,,,,,,,,,,,,,,,,0,0,0,0,0,9,9,4,,,,,,,,,,,,,,,,,,,,,,,,,,,,,,,,,,,,,,1080.506880300003,1080.506880300003,1080.506880300003,1080.506880300003,1080.506880300003,j,1,2.923155599972233,,,,,,,,,,,,,,,,,,,,1083.437849799986,,,,230624_lax,女,小学,8,001,2023-06-24_16h22.26.389,nalin_IRAP,2023.1.2,119.9656418857924,
"恭喜，你已达成80%正确率，可以继续实验

~请按空格键进入测试阶段~",愉悦,"(0.0, -0.15)",f,,,,,,,,,,,,,,,,,,,,,,,,,0,0,0,0,0,10,10,14,,,,,,,,,,,,,,,,,,,,,,,,,,,,,,,,,,,,,,1083.948170299991,1083.948170299991,1083.948170299991,1083.948170299991,1083.948170299991,f,1,16.91218669997761,,,,,,,,,,,,,,,,,,,,1100.8732778999838,,,,230624_lax,女,小学,8,001,2023-06-24_16h22.26.389,nalin_IRAP,2023.1.2,119.9656418857924,
"恭喜，你已达成80%正确率，可以继续实验

~请按空格键进入测试阶段~",伤心,"(0.0, 0.3)",f,,,,,,,,,,,,,,,,,,,,,,,,,0,0,0,0,0,11,11,6,,,,,,,,,,,,,,,,,,,,,,,,,,,,,,,,,,,,,,1101.3815087000257,1101.3815087000257,1101.3815087000257,1101.3815087000257,1101.3815087000257,f,1,3.8093613000237383,,,,,,,,,,,,,,,,,,,,1105.201895300008,1105.7064717999892,,,230624_lax,女,小学,8,001,2023-06-24_16h22.26.389,nalin_IRAP,2023.1.2,119.9656418857924,
"恭喜，你已达成80%正确率，可以继续实验

~请按空格键进入测试阶段~",忧郁,"(0.0, -0.15)",j,,,,,,,,,,,,,,,,,,,,,,,,,0,0,0,0,0,12,12,22,,,,,,,,,,,,,,,,,,,,,,,,,,,,,,,,,,,,,,1105.7064717999892,1105.7064717999892,1105.7064717999892,1105.7064717999892,1105.7064717999892,j,1,1.784580699983053,,,,,,,,,,,,,,,,,,,,1107.502550699981,1108.0072913999902,,,230624_lax,女,小学,8,001,2023-06-24_16h22.26.389,nalin_IRAP,2023.1.2,119.9656418857924,
"恭喜，你已达成80%正确率，可以继续实验

~请按空格键进入测试阶段~",快乐,"(0.0, 0.3)",j,,,,,,,,,,,,,,,,,,,,,,,,,0,0,0,0,0,13,13,1,,,,,,,,,,,,,,,,,,,,,,,,,,,,,,,,,,,,,,1108.0072913999902,1108.0072913999902,1108.0072913999902,1108.0072913999902,1108.0072913999902,j,1,2.6322386999963783,,,,,,,,,,,,,,,,,,,,1110.6569907999947,,,,230624_lax,女,小学,8,001,2023-06-24_16h22.26.389,nalin_IRAP,2023.1.2,119.9656418857924,
"恭喜，你已达成80%正确率，可以继续实验

~请按空格键进入测试阶段~",难过,"(0.0, -0.15)",j,,,,,,,,,,,,,,,,,,,,,,,,,0,0,0,0,0,14,14,20,,,,,,,,,,,,,,,,,,,,,,,,,,,,,,,,,,,,,,1111.164472399978,1111.164472399978,1111.164472399978,1111.164472399978,1111.164472399978,j,1,4.443088700005319,,,,,,,,,,,,,,,,,,,,1115.621321899991,,,,230624_lax,女,小学,8,001,2023-06-24_16h22.26.389,nalin_IRAP,2023.1.2,119.9656418857924,
"恭喜，你已达成80%正确率，可以继续实验

~请按空格键进入测试阶段~",悲伤,"(0.0, -0.15)",j,,,,,,,,,,,,,,,,,,,,,,,,,0,0,0,0,0,15,15,21,,,,,,,,,,,,,,,,,,,,,,,,,,,,,,,,,,,,,,1116.1304075000226,1116.1304075000226,1116.1304075000226,1116.1304075000226,1116.1304075000226,j,1,2.0372906000120565,,,,,,,,,,,,,,,,,,,,1118.1837137999828,1118.690409999981,,,230624_lax,女,小学,8,001,2023-06-24_16h22.26.389,nalin_IRAP,2023.1.2,119.9656418857924,
"恭喜，你已达成80%正确率，可以继续实验

~请按空格键进入测试阶段~",愉快,"(0.0, 0.3)",j,,,,,,,,,,,,,,,,,,,,,,,,,0,0,0,0,0,16,16,5,,,,,,,,,,,,,,,,,,,,,,,,,,,,,,,,,,,,,,1118.690409999981,1118.690409999981,1118.690409999981,1118.690409999981,1118.690409999981,j,1,2.9844012000248767,,,,,,,,,,,,,,,,,,,,1121.687240500003,,,,230624_lax,女,小学,8,001,2023-06-24_16h22.26.389,nalin_IRAP,2023.1.2,119.9656418857924,
"恭喜，你已达成80%正确率，可以继续实验

~请按空格键进入测试阶段~",欣喜,"(0.0, 0.3)",j,,,,,,,,,,,,,,,,,,,,,,,,,0,0,0,0,0,17,17,3,,,,,,,,,,,,,,,,,,,,,,,,,,,,,,,,,,,,,,1122.1975888999877,1122.1975888999877,1122.1975888999877,1122.1975888999877,1122.1975888999877,j,1,2.897297499992419,,,,,,,,,,,,,,,,,,,,1125.103859200026,,,,230624_lax,女,小学,8,001,2023-06-24_16h22.26.389,nalin_IRAP,2023.1.2,119.9656418857924,
"恭喜，你已达成80%正确率，可以继续实验

~请按空格键进入测试阶段~",愁苦,"(0.0, 0.3)",f,,,,,,,,,,,,,,,,,,,,,,,,,0,0,0,0,0,18,18,11,,,,,,,,,,,,,,,,,,,,,,,,,,,,,,,,,,,,,,1125.6142134999973,1125.6142134999973,1125.6142134999973,1125.6142134999973,1125.6142134999973,f,1,1.9944053000072017,,,,,,,,,,,,,,,,,,,,1127.6204565999797,,,,230624_lax,女,小学,8,001,2023-06-24_16h22.26.389,nalin_IRAP,2023.1.2,119.9656418857924,
"恭喜，你已达成80%正确率，可以继续实验

~请按空格键进入测试阶段~",悲伤,"(0.0, 0.3)",f,,,,,,,,,,,,,,,,,,,,,,,,,0,0,0,0,0,19,19,9,,,,,,,,,,,,,,,,,,,,,,,,,,,,,,,,,,,,,,1128.1298199999728,1128.1298199999728,1128.1298199999728,1128.1298199999728,1128.1298199999728,f,1,1.277040000015404,,,,,,,,,,,,,,,,,,,,1129.422171299986,,,,230624_lax,女,小学,8,001,2023-06-24_16h22.26.389,nalin_IRAP,2023.1.2,119.9656418857924,
"恭喜，你已达成80%正确率，可以继续实验

~请按空格键进入测试阶段~",快乐,"(0.0, -0.15)",f,,,,,,,,,,,,,,,,,,,,,,,,,0,0,0,0,0,20,20,13,,,,,,,,,,,,,,,,,,,,,,,,,,,,,,,,,,,,,,1129.9318232000223,1129.9318232000223,1129.9318232000223,1129.9318232000223,1129.9318232000223,j,0,1.6342097999877296,,,,,,,,,,,,,,,,,,,,1131.578291199985,,,,230624_lax,女,小学,8,001,2023-06-24_16h22.26.389,nalin_IRAP,2023.1.2,119.9656418857924,
"恭喜，你已达成80%正确率，可以继续实验

~请按空格键进入测试阶段~",高兴,"(0.0, -0.15)",f,,,,,,,,,,,,,,,,,,,,,,,,,0,0,0,0,0,21,21,12,,,,,,,,,,,,,,,,,,,,,,,,,,,,,,,,,,,,,,1132.089610999974,1132.089610999974,1132.089610999974,1132.089610999974,1132.089610999974,f,1,9.411876700003631,,,,,,,,,,,,,,,,,,,,1141.5124180000275,,,,230624_lax,女,小学,8,001,2023-06-24_16h22.26.389,nalin_IRAP,2023.1.2,119.9656418857924,
"恭喜，你已达成80%正确率，可以继续实验

~请按空格键进入测试阶段~",伤心,"(0.0, -0.15)",j,,,,,,,,,,,,,,,,,,,,,,,,,0,0,0,0,0,22,22,18,,,,,,,,,,,,,,,,,,,,,,,,,,,,,,,,,,,,,,1142.022004999977,1142.022004999977,1142.022004999977,1142.022004999977,1142.022004999977,j,1,8.811432300019078,,,,,,,,,,,,,,,,,,,,1150.8490787000046,,,,230624_lax,女,小学,8,001,2023-06-24_16h22.26.389,nalin_IRAP,2023.1.2,119.9656418857924,
"恭喜，你已达成80%正确率，可以继续实验

~请按空格键进入测试阶段~",失落,"(0.0, 0.3)",f,,,,,,,,,,,,,,,,,,,,,,,,,0,0,0,0,0,23,23,7,,,,,,,,,,,,,,,,,,,,,,,,,,,,,,,,,,,,,,1151.3566777000087,1151.3566777000087,1151.3566777000087,1151.3566777000087,1151.3566777000087,f,1,2.9009878000360914,,,,,,,,,,,,,,,,,,,,1154.2650628000265,,,,230624_lax,女,小学,8,001,2023-06-24_16h22.26.389,nalin_IRAP,2023.1.2,119.9656418857924,
"恭喜，你已达成80%正确率，可以继续实验

~请按空格键进入测试阶段~",欣喜,"(0.0, 0.3)",j,,,,,,,,,,,,,,,,,,,,,,,,,0,0,0,0,1,0,24,3,,,,,,,,,,,,,,,,,,,,,,,,,,,,,,,,,,,,,,1154.772603599995,1154.772603599995,1154.772603599995,1154.772603599995,1154.772603599995,j,1,3.2125973000074737,,,,,,,,,,,,,,,,,,,,1158.0003545000218,1158.506284300005,,,230624_lax,女,小学,8,001,2023-06-24_16h22.26.389,nalin_IRAP,2023.1.2,119.9656418857924,
"恭喜，你已达成80%正确率，可以继续实验

~请按空格键进入测试阶段~",伤心,"(0.0, -0.15)",j,,,,,,,,,,,,,,,,,,,,,,,,,0,0,0,0,1,1,25,18,,,,,,,,,,,,,,,,,,,,,,,,,,,,,,,,,,,,,,1158.506284300005,1158.506284300005,1158.506284300005,1158.506284300005,1158.506284300005,j,1,3.40491280000424,,,,,,,,,,,,,,,,,,,,1161.9267892999924,1162.4321829000255,,,230624_lax,女,小学,8,001,2023-06-24_16h22.26.389,nalin_IRAP,2023.1.2,119.9656418857924,
"恭喜，你已达成80%正确率，可以继续实验

~请按空格键进入测试阶段~",高兴,"(0.0, 0.3)",j,,,,,,,,,,,,,,,,,,,,,,,,,0,0,0,0,1,2,26,0,,,,,,,,,,,,,,,,,,,,,,,,,,,,,,,,,,,,,,1162.4321829000255,1162.4321829000255,1162.4321829000255,1162.4321829000255,1162.4321829000255,j,1,7.121757799992338,,,,,,,,,,,,,,,,,,,,1169.5658502000151,,,,230624_lax,女,小学,8,001,2023-06-24_16h22.26.389,nalin_IRAP,2023.1.2,119.9656418857924,
"恭喜，你已达成80%正确率，可以继续实验

~请按空格键进入测试阶段~",喜悦,"(0.0, 0.3)",j,,,,,,,,,,,,,,,,,,,,,,,,,0,0,0,0,1,3,27,4,,,,,,,,,,,,,,,,,,,,,,,,,,,,,,,,,,,,,,1170.0730504000094,1170.0730504000094,1170.0730504000094,1170.0730504000094,1170.0730504000094,j,1,4.598794399993494,,,,,,,,,,,,,,,,,,,,1174.6860141999787,1175.1888489000266,,,230624_lax,女,小学,8,001,2023-06-24_16h22.26.389,nalin_IRAP,2023.1.2,119.9656418857924,
"恭喜，你已达成80%正确率，可以继续实验

~请按空格键进入测试阶段~",愁苦,"(0.0, -0.15)",j,,,,,,,,,,,,,,,,,,,,,,,,,0,0,0,0,1,4,28,23,,,,,,,,,,,,,,,,,,,,,,,,,,,,,,,,,,,,,,1175.1888489000266,1175.1888489000266,1175.1888489000266,1175.1888489000266,1175.1888489000266,f,0,1.7229457999928854,,,,,,,,,,,,,,,,,,,,1176.9285105000017,,,,230624_lax,女,小学,8,001,2023-06-24_16h22.26.389,nalin_IRAP,2023.1.2,119.9656418857924,
"恭喜，你已达成80%正确率，可以继续实验

~请按空格键进入测试阶段~",喜悦,"(0.0, -0.15)",f,,,,,,,,,,,,,,,,,,,,,,,,,0,0,0,0,1,5,29,16,,,,,,,,,,,,,,,,,,,,,,,,,,,,,,,,,,,,,,1177.438222100027,1177.438222100027,1177.438222100027,1177.438222100027,1177.438222100027,f,1,10.007248100009747,,,,,,,,,,,,,,,,,,,,1187.4534679999924,,,,230624_lax,女,小学,8,001,2023-06-24_16h22.26.389,nalin_IRAP,2023.1.2,119.9656418857924,
"恭喜，你已达成80%正确率，可以继续实验

~请按空格键进入测试阶段~",快乐,"(0.0, 0.3)",j,,,,,,,,,,,,,,,,,,,,,,,,,0,0,0,0,1,6,30,1,,,,,,,,,,,,,,,,,,,,,,,,,,,,,,,,,,,,,,1187.9638808000018,1187.9638808000018,1187.9638808000018,1187.9638808000018,1187.9638808000018,j,1,2.19333129998995,,,,,,,,,,,,,,,,,,,,1190.1684229000239,1190.6729777000146,,,230624_lax,女,小学,8,001,2023-06-24_16h22.26.389,nalin_IRAP,2023.1.2,119.9656418857924,
"恭喜，你已达成80%正确率，可以继续实验

~请按空格键进入测试阶段~",难过,"(0.0, -0.15)",j,,,,,,,,,,,,,,,,,,,,,,,,,0,0,0,0,1,7,31,20,,,,,,,,,,,,,,,,,,,,,,,,,,,,,,,,,,,,,,1190.6729777000146,1190.6729777000146,1190.6729777000146,1190.6729777000146,1190.6729777000146,j,1,3.432286800001748,,,,,,,,,,,,,,,,,,,,1194.1204227000126,,,,230624_lax,女,小学,8,001,2023-06-24_16h22.26.389,nalin_IRAP,2023.1.2,119.9656418857924,
"恭喜，你已达成80%正确率，可以继续实验

~请按空格键进入测试阶段~",愉悦,"(0.0, 0.3)",j,,,,,,,,,,,,,,,,,,,,,,,,,0,0,0,0,1,8,32,2,,,,,,,,,,,,,,,,,,,,,,,,,,,,,,,,,,,,,,1194.6311679999926,1194.6311679999926,1194.6311679999926,1194.6311679999926,1194.6311679999926,j,1,5.334120699961204,,,,,,,,,,,,,,,,,,,,1199.9767112000263,1200.481608400005,,,230624_lax,女,小学,8,001,2023-06-24_16h22.26.389,nalin_IRAP,2023.1.2,119.9656418857924,
"恭喜，你已达成80%正确率，可以继续实验

~请按空格键进入测试阶段~",难过,"(0.0, 0.3)",f,,,,,,,,,,,,,,,,,,,,,,,,,0,0,0,0,1,9,33,8,,,,,,,,,,,,,,,,,,,,,,,,,,,,,,,,,,,,,,1200.481608400005,1200.481608400005,1200.481608400005,1200.481608400005,1200.481608400005,f,1,3.36670780001441,,,,,,,,,,,,,,,,,,,,1203.8601101000095,1204.363158799999,,,230624_lax,女,小学,8,001,2023-06-24_16h22.26.389,nalin_IRAP,2023.1.2,119.9656418857924,
"恭喜，你已达成80%正确率，可以继续实验

~请按空格键进入测试阶段~",欣喜,"(0.0, -0.15)",f,,,,,,,,,,,,,,,,,,,,,,,,,0,0,0,0,1,10,34,15,,,,,,,,,,,,,,,,,,,,,,,,,,,,,,,,,,,,,,1204.363158799999,1204.363158799999,1204.363158799999,1204.363158799999,1204.363158799999,f,1,5.6440579000045545,,,,,,,,,,,,,,,,,,,,1210.0183146999916,1210.5226764000254,,,230624_lax,女,小学,8,001,2023-06-24_16h22.26.389,nalin_IRAP,2023.1.2,119.9656418857924,
"恭喜，你已达成80%正确率，可以继续实验

~请按空格键进入测试阶段~",失落,"(0.0, -0.15)",j,,,,,,,,,,,,,,,,,,,,,,,,,0,0,0,0,1,11,35,19,,,,,,,,,,,,,,,,,,,,,,,,,,,,,,,,,,,,,,1210.5226764000254,1210.5226764000254,1210.5226764000254,1210.5226764000254,1210.5226764000254,j,1,2.981897499994375,,,,,,,,,,,,,,,,,,,,1213.5183539999998,1214.0237540000235,,,230624_lax,女,小学,8,001,2023-06-24_16h22.26.389,nalin_IRAP,2023.1.2,119.9656418857924,
"恭喜，你已达成80%正确率，可以继续实验

~请按空格键进入测试阶段~",悲伤,"(0.0, 0.3)",f,,,,,,,,,,,,,,,,,,,,,,,,,0,0,0,0,1,12,36,9,,,,,,,,,,,,,,,,,,,,,,,,,,,,,,,,,,,,,,1214.0237540000235,1214.0237540000235,1214.0237540000235,1214.0237540000235,1214.0237540000235,f,1,4.027104099979624,,,,,,,,,,,,,,,,,,,,1218.0600212999852,1218.5629353999975,,,230624_lax,女,小学,8,001,2023-06-24_16h22.26.389,nalin_IRAP,2023.1.2,119.9656418857924,
"恭喜，你已达成80%正确率，可以继续实验

~请按空格键进入测试阶段~",悲伤,"(0.0, -0.15)",j,,,,,,,,,,,,,,,,,,,,,,,,,0,0,0,0,1,13,37,21,,,,,,,,,,,,,,,,,,,,,,,,,,,,,,,,,,,,,,1218.5629353999975,1218.5629353999975,1218.5629353999975,1218.5629353999975,1218.5629353999975,j,1,2.41585039999336,,,,,,,,,,,,,,,,,,,,1220.9952992000035,,,,230624_lax,女,小学,8,001,2023-06-24_16h22.26.389,nalin_IRAP,2023.1.2,119.9656418857924,
"恭喜，你已达成80%正确率，可以继续实验

~请按空格键进入测试阶段~",伤心,"(0.0, 0.3)",f,,,,,,,,,,,,,,,,,,,,,,,,,0,0,0,0,1,14,38,6,,,,,,,,,,,,,,,,,,,,,,,,,,,,,,,,,,,,,,1221.5044962000102,1221.5044962000102,1221.5044962000102,1221.5044962000102,1221.5044962000102,f,1,16.956216700025834,,,,,,,,,,,,,,,,,,,,1238.4766100000124,1238.9816839999985,,,230624_lax,女,小学,8,001,2023-06-24_16h22.26.389,nalin_IRAP,2023.1.2,119.9656418857924,
"恭喜，你已达成80%正确率，可以继续实验

~请按空格键进入测试阶段~",愉悦,"(0.0, -0.15)",f,,,,,,,,,,,,,,,,,,,,,,,,,0,0,0,0,1,15,39,14,,,,,,,,,,,,,,,,,,,,,,,,,,,,,,,,,,,,,,1238.9816839999985,1238.9816839999985,1238.9816839999985,1238.9816839999985,1238.9816839999985,f,1,4.127139399992302,,,,,,,,,,,,,,,,,,,,1243.1236573000206,,,,230624_lax,女,小学,8,001,2023-06-24_16h22.26.389,nalin_IRAP,2023.1.2,119.9656418857924,
"恭喜，你已达成80%正确率，可以继续实验

~请按空格键进入测试阶段~",愁苦,"(0.0, 0.3)",f,,,,,,,,,,,,,,,,,,,,,,,,,0,0,0,0,1,16,40,11,,,,,,,,,,,,,,,,,,,,,,,,,,,,,,,,,,,,,,1243.630778199993,1243.630778199993,1243.630778199993,1243.630778199993,1243.630778199993,f,1,3.5827202000073157,,,,,,,,,,,,,,,,,,,,1247.2269732999848,1247.7310925999773,,,230624_lax,女,小学,8,001,2023-06-24_16h22.26.389,nalin_IRAP,2023.1.2,119.9656418857924,
"恭喜，你已达成80%正确率，可以继续实验

~请按空格键进入测试阶段~",忧郁,"(0.0, 0.3)",f,,,,,,,,,,,,,,,,,,,,,,,,,0,0,0,0,1,17,41,10,,,,,,,,,,,,,,,,,,,,,,,,,,,,,,,,,,,,,,1247.7310925999773,1247.7310925999773,1247.7310925999773,1247.7310925999773,1247.7310925999773,f,1,4.476308899989817,,,,,,,,,,,,,,,,,,,,1252.220320900029,,,,230624_lax,女,小学,8,001,2023-06-24_16h22.26.389,nalin_IRAP,2023.1.2,119.9656418857924,
"恭喜，你已达成80%正确率，可以继续实验

~请按空格键进入测试阶段~",高兴,"(0.0, -0.15)",f,,,,,,,,,,,,,,,,,,,,,,,,,0,0,0,0,1,18,42,12,,,,,,,,,,,,,,,,,,,,,,,,,,,,,,,,,,,,,,1252.7299514000188,1252.7299514000188,1252.7299514000188,1252.7299514000188,1252.7299514000188,f,1,4.000044499989599,,,,,,,,,,,,,,,,,,,,1256.7453992000083,,,,230624_lax,女,小学,8,001,2023-06-24_16h22.26.389,nalin_IRAP,2023.1.2,119.9656418857924,
"恭喜，你已达成80%正确率，可以继续实验

~请按空格键进入测试阶段~",失落,"(0.0, 0.3)",f,,,,,,,,,,,,,,,,,,,,,,,,,0,0,0,0,1,19,43,7,,,,,,,,,,,,,,,,,,,,,,,,,,,,,,,,,,,,,,1257.255932400003,1257.255932400003,1257.255932400003,1257.255932400003,1257.255932400003,f,1,2.737700199999381,,,,,,,,,,,,,,,,,,,,1260.0053077000193,,,,230624_lax,女,小学,8,001,2023-06-24_16h22.26.389,nalin_IRAP,2023.1.2,119.9656418857924,
"恭喜，你已达成80%正确率，可以继续实验

~请按空格键进入测试阶段~",忧郁,"(0.0, -0.15)",j,,,,,,,,,,,,,,,,,,,,,,,,,0,0,0,0,1,20,44,22,,,,,,,,,,,,,,,,,,,,,,,,,,,,,,,,,,,,,,1260.513972899993,1260.513972899993,1260.513972899993,1260.513972899993,1260.513972899993,j,1,2.4965680000022985,,,,,,,,,,,,,,,,,,,,1263.0256982999854,1263.5308528000023,,,230624_lax,女,小学,8,001,2023-06-24_16h22.26.389,nalin_IRAP,2023.1.2,119.9656418857924,
"恭喜，你已达成80%正确率，可以继续实验

~请按空格键进入测试阶段~",愉快,"(0.0, -0.15)",f,,,,,,,,,,,,,,,,,,,,,,,,,0,0,0,0,1,21,45,17,,,,,,,,,,,,,,,,,,,,,,,,,,,,,,,,,,,,,,1263.5308528000023,1263.5308528000023,1263.5308528000023,1263.5308528000023,1263.5308528000023,f,1,2.9010078000137582,,,,,,,,,,,,,,,,,,,,1266.4395565000013,,,,230624_lax,女,小学,8,001,2023-06-24_16h22.26.389,nalin_IRAP,2023.1.2,119.9656418857924,
"恭喜，你已达成80%正确率，可以继续实验

~请按空格键进入测试阶段~",快乐,"(0.0, -0.15)",f,,,,,,,,,,,,,,,,,,,,,,,,,0,0,0,0,1,22,46,13,,,,,,,,,,,,,,,,,,,,,,,,,,,,,,,,,,,,,,1266.948144300026,1266.948144300026,1266.948144300026,1266.948144300026,1266.948144300026,f,1,1.235009900003206,,,,,,,,,,,,,,,,,,,,1268.1972311999998,,,,230624_lax,女,小学,8,001,2023-06-24_16h22.26.389,nalin_IRAP,2023.1.2,119.9656418857924,
"恭喜，你已达成80%正确率，可以继续实验

~请按空格键进入测试阶段~",愉快,"(0.0, 0.3)",j,,,,,,,,,,,,,,,,,,,,,,,,,0,0,0,0,1,23,47,5,,,,,,,,,,,,,,,,,,,,,,,,,,,,,,,,,,,,,,1268.705857999972,1268.705857999972,1268.705857999972,1268.705857999972,1268.705857999972,j,1,4.2130846999934874,,,,,,,,,,,,,,,,,,,,1272.9331792999874,1273.4396347000147,,,230624_lax,女,小学,8,001,2023-06-24_16h22.26.389,nalin_IRAP,2023.1.2,119.9656418857924,
"恭喜，你已达成80%正确率，可以继续实验

~请按空格键进入测试阶段~",伤心,"(0.0, 0.3)",f,,,,,,,,,,,,,,,,,,,,,,,,,0,0,0,0,2,0,48,6,,,,,,,,,,,,,,,,,,,,,,,,,,,,,,,,,,,,,,1273.4396347000147,1273.4396347000147,1273.4396347000147,1273.4396347000147,1273.4396347000147,f,1,2.4178396000061184,,,,,,,,,,,,,,,,,,,,1275.870731699979,,,,230624_lax,女,小学,8,001,2023-06-24_16h22.26.389,nalin_IRAP,2023.1.2,119.9656418857924,
"恭喜，你已达成80%正确率，可以继续实验

~请按空格键进入测试阶段~",难过,"(0.0, -0.15)",j,,,,,,,,,,,,,,,,,,,,,,,,,0,0,0,0,2,1,49,20,,,,,,,,,,,,,,,,,,,,,,,,,,,,,,,,,,,,,,1276.3810839999933,1276.3810839999933,1276.3810839999933,1276.3810839999933,1276.3810839999933,j,1,2.648747400031425,,,,,,,,,,,,,,,,,,,,1279.0387668000185,,,,230624_lax,女,小学,8,001,2023-06-24_16h22.26.389,nalin_IRAP,2023.1.2,119.9656418857924,
"恭喜，你已达成80%正确率，可以继续实验

~请按空格键进入测试阶段~",失落,"(0.0, -0.15)",j,,,,,,,,,,,,,,,,,,,,,,,,,0,0,0,0,2,2,50,19,,,,,,,,,,,,,,,,,,,,,,,,,,,,,,,,,,,,,,1279.5471451000194,1279.5471451000194,1279.5471451000194,1279.5471451000194,1279.5471451000194,j,1,1.4551809999975376,,,,,,,,,,,,,,,,,,,,1281.0106966000167,1281.5151664000005,,,230624_lax,女,小学,8,001,2023-06-24_16h22.26.389,nalin_IRAP,2023.1.2,119.9656418857924,
"恭喜，你已达成80%正确率，可以继续实验

~请按空格键进入测试阶段~",悲伤,"(0.0, 0.3)",f,,,,,,,,,,,,,,,,,,,,,,,,,0,0,0,0,2,3,51,9,,,,,,,,,,,,,,,,,,,,,,,,,,,,,,,,,,,,,,1281.5151664000005,1281.5151664000005,1281.5151664000005,1281.5151664000005,1281.5151664000005,f,1,4.204780000029132,,,,,,,,,,,,,,,,,,,,1285.733308899973,1286.2379961999832,,,230624_lax,女,小学,8,001,2023-06-24_16h22.26.389,nalin_IRAP,2023.1.2,119.9656418857924,
"恭喜，你已达成80%正确率，可以继续实验

~请按空格键进入测试阶段~",悲伤,"(0.0, -0.15)",j,,,,,,,,,,,,,,,,,,,,,,,,,0,0,0,0,2,4,52,21,,,,,,,,,,,,,,,,,,,,,,,,,,,,,,,,,,,,,,1286.2379961999832,1286.2379961999832,1286.2379961999832,1286.2379961999832,1286.2379961999832,j,1,1.2610029999632388,,,,,,,,,,,,,,,,,,,,1287.5071518999757,,,,230624_lax,女,小学,8,001,2023-06-24_16h22.26.389,nalin_IRAP,2023.1.2,119.9656418857924,
"恭喜，你已达成80%正确率，可以继续实验

~请按空格键进入测试阶段~",忧郁,"(0.0, -0.15)",j,,,,,,,,,,,,,,,,,,,,,,,,,0,0,0,0,2,5,53,22,,,,,,,,,,,,,,,,,,,,,,,,,,,,,,,,,,,,,,1288.0137765000109,1288.0137765000109,1288.0137765000109,1288.0137765000109,1288.0137765000109,j,1,2.2409490999998525,,,,,,,,,,,,,,,,,,,,1290.270222000021,,,,230624_lax,女,小学,8,001,2023-06-24_16h22.26.389,nalin_IRAP,2023.1.2,119.9656418857924,
"恭喜，你已达成80%正确率，可以继续实验

~请按空格键进入测试阶段~",伤心,"(0.0, -0.15)",j,,,,,,,,,,,,,,,,,,,,,,,,,0,0,0,0,2,6,54,18,,,,,,,,,,,,,,,,,,,,,,,,,,,,,,,,,,,,,,1290.7806293999893,1290.7806293999893,1290.7806293999893,1290.7806293999893,1290.7806293999893,j,1,1.0201219999580644,,,,,,,,,,,,,,,,,,,,1291.8102747999947,1292.3146426000167,,,230624_lax,女,小学,8,001,2023-06-24_16h22.26.389,nalin_IRAP,2023.1.2,119.9656418857924,
"恭喜，你已达成80%正确率，可以继续实验

~请按空格键进入测试阶段~",愁苦,"(0.0, -0.15)",j,,,,,,,,,,,,,,,,,,,,,,,,,0,0,0,0,2,7,55,23,,,,,,,,,,,,,,,,,,,,,,,,,,,,,,,,,,,,,,1292.3146426000167,1292.3146426000167,1292.3146426000167,1292.3146426000167,1292.3146426000167,j,1,1.07695259997854,,,,,,,,,,,,,,,,,,,,1293.4085570999887,1293.9147766000242,,,230624_lax,女,小学,8,001,2023-06-24_16h22.26.389,nalin_IRAP,2023.1.2,119.9656418857924,
"恭喜，你已达成80%正确率，可以继续实验

~请按空格键进入测试阶段~",忧郁,"(0.0, 0.3)",f,,,,,,,,,,,,,,,,,,,,,,,,,0,0,0,0,2,8,56,10,,,,,,,,,,,,,,,,,,,,,,,,,,,,,,,,,,,,,,1293.9147766000242,1293.9147766000242,1293.9147766000242,1293.9147766000242,1293.9147766000242,f,1,2.216858699976001,,,,,,,,,,,,,,,,,,,,1296.1472794999718,,,,230624_lax,女,小学,8,001,2023-06-24_16h22.26.389,nalin_IRAP,2023.1.2,119.9656418857924,
"恭喜，你已达成80%正确率，可以继续实验

~请按空格键进入测试阶段~",高兴,"(0.0, -0.15)",f,,,,,,,,,,,,,,,,,,,,,,,,,0,0,0,0,2,9,57,12,,,,,,,,,,,,,,,,,,,,,,,,,,,,,,,,,,,,,,1296.6555658999714,1296.6555658999714,1296.6555658999714,1296.6555658999714,1296.6555658999714,f,1,1.3592366999946535,,,,,,,,,,,,,,,,,,,,1298.0266756999772,1298.5324799999944,,,230624_lax,女,小学,8,001,2023-06-24_16h22.26.389,nalin_IRAP,2023.1.2,119.9656418857924,
"恭喜，你已达成80%正确率，可以继续实验

~请按空格键进入测试阶段~",欣喜,"(0.0, 0.3)",j,,,,,,,,,,,,,,,,,,,,,,,,,0,0,0,0,2,10,58,3,,,,,,,,,,,,,,,,,,,,,,,,,,,,,,,,,,,,,,1298.5324799999944,1298.5324799999944,1298.5324799999944,1298.5324799999944,1298.5324799999944,j,1,17.125565700000152,,,,,,,,,,,,,,,,,,,,1315.6719303000136,,,,230624_lax,女,小学,8,001,2023-06-24_16h22.26.389,nalin_IRAP,2023.1.2,119.9656418857924,
"恭喜，你已达成80%正确率，可以继续实验

~请按空格键进入测试阶段~",难过,"(0.0, 0.3)",f,,,,,,,,,,,,,,,,,,,,,,,,,0,0,0,0,2,11,59,8,,,,,,,,,,,,,,,,,,,,,,,,,,,,,,,,,,,,,,1316.1801794000203,1316.1801794000203,1316.1801794000203,1316.1801794000203,1316.1801794000203,f,1,12.26493310002843,,,,,,,,,,,,,,,,,,,,1328.453285800002,,,,230624_lax,女,小学,8,001,2023-06-24_16h22.26.389,nalin_IRAP,2023.1.2,119.9656418857924,
"恭喜，你已达成80%正确率，可以继续实验

~请按空格键进入测试阶段~",愉快,"(0.0, -0.15)",f,,,,,,,,,,,,,,,,,,,,,,,,,0,0,0,0,2,12,60,17,,,,,,,,,,,,,,,,,,,,,,,,,,,,,,,,,,,,,,1328.9639940999914,1328.9639940999914,1328.9639940999914,1328.9639940999914,1328.9639940999914,f,1,3.1903186999843456,,,,,,,,,,,,,,,,,,,,1332.1693114999798,,,,230624_lax,女,小学,8,001,2023-06-24_16h22.26.389,nalin_IRAP,2023.1.2,119.9656418857924,
"恭喜，你已达成80%正确率，可以继续实验

~请按空格键进入测试阶段~",喜悦,"(0.0, 0.3)",j,,,,,,,,,,,,,,,,,,,,,,,,,0,0,0,0,2,13,61,4,,,,,,,,,,,,,,,,,,,,,,,,,,,,,,,,,,,,,,1332.6803837000043,1332.6803837000043,1332.6803837000043,1332.6803837000043,1332.6803837000043,j,1,1.5244639999582432,,,,,,,,,,,,,,,,,,,,1334.2184394000215,1334.7228171000024,,,230624_lax,女,小学,8,001,2023-06-24_16h22.26.389,nalin_IRAP,2023.1.2,119.9656418857924,
"恭喜，你已达成80%正确率，可以继续实验

~请按空格键进入测试阶段~",愉快,"(0.0, 0.3)",j,,,,,,,,,,,,,,,,,,,,,,,,,0,0,0,0,2,14,62,5,,,,,,,,,,,,,,,,,,,,,,,,,,,,,,,,,,,,,,1334.7228171000024,1334.7228171000024,1334.7228171000024,1334.7228171000024,1334.7228171000024,j,1,8.614212499989662,,,,,,,,,,,,,,,,,,,,1343.352297800011,1343.8561767999781,,,230624_lax,女,小学,8,001,2023-06-24_16h22.26.389,nalin_IRAP,2023.1.2,119.9656418857924,
"恭喜，你已达成80%正确率，可以继续实验

~请按空格键进入测试阶段~",快乐,"(0.0, -0.15)",f,,,,,,,,,,,,,,,,,,,,,,,,,0,0,0,0,2,15,63,13,,,,,,,,,,,,,,,,,,,,,,,,,,,,,,,,,,,,,,1343.8561767999781,1343.8561767999781,1343.8561767999781,1343.8561767999781,1343.8561767999781,f,1,2.4291081000119448,,,,,,,,,,,,,,,,,,,,1346.2958758000168,,,,230624_lax,女,小学,8,001,2023-06-24_16h22.26.389,nalin_IRAP,2023.1.2,119.9656418857924,
"恭喜，你已达成80%正确率，可以继续实验

~请按空格键进入测试阶段~",欣喜,"(0.0, -0.15)",f,,,,,,,,,,,,,,,,,,,,,,,,,0,0,0,0,2,16,64,15,,,,,,,,,,,,,,,,,,,,,,,,,,,,,,,,,,,,,,1346.806899200019,1346.806899200019,1346.806899200019,1346.806899200019,1346.806899200019,f,1,1.149733100028243,,,,,,,,,,,,,,,,,,,,1347.9703514000284,,,,230624_lax,女,小学,8,001,2023-06-24_16h22.26.389,nalin_IRAP,2023.1.2,119.9656418857924,
"恭喜，你已达成80%正确率，可以继续实验

~请按空格键进入测试阶段~",快乐,"(0.0, 0.3)",j,,,,,,,,,,,,,,,,,,,,,,,,,0,0,0,0,2,17,65,1,,,,,,,,,,,,,,,,,,,,,,,,,,,,,,,,,,,,,,1348.481743899989,1348.481743899989,1348.481743899989,1348.481743899989,1348.481743899989,j,1,1.93858309998177,,,,,,,,,,,,,,,,,,,,1350.4294248999795,,,,230624_lax,女,小学,8,001,2023-06-24_16h22.26.389,nalin_IRAP,2023.1.2,119.9656418857924,
"恭喜，你已达成80%正确率，可以继续实验

~请按空格键进入测试阶段~",高兴,"(0.0, 0.3)",j,,,,,,,,,,,,,,,,,,,,,,,,,0,0,0,0,2,18,66,0,,,,,,,,,,,,,,,,,,,,,,,,,,,,,,,,,,,,,,1350.9381951999967,1350.9381951999967,1350.9381951999967,1350.9381951999967,1350.9381951999967,j,1,5.971285500039812,,,,,,,,,,,,,,,,,,,,1356.9216705000144,,,,230624_lax,女,小学,8,001,2023-06-24_16h22.26.389,nalin_IRAP,2023.1.2,119.9656418857924,
"恭喜，你已达成80%正确率，可以继续实验

~请按空格键进入测试阶段~",愉悦,"(0.0, 0.3)",j,,,,,,,,,,,,,,,,,,,,,,,,,0,0,0,0,2,19,67,2,,,,,,,,,,,,,,,,,,,,,,,,,,,,,,,,,,,,,,1357.430073400028,1357.430073400028,1357.430073400028,1357.430073400028,1357.430073400028,j,1,5.403925999999046,,,,,,,,,,,,,,,,,,,,1362.8437488999916,1363.3468211999862,,,230624_lax,女,小学,8,001,2023-06-24_16h22.26.389,nalin_IRAP,2023.1.2,119.9656418857924,
"恭喜，你已达成80%正确率，可以继续实验

~请按空格键进入测试阶段~",失落,"(0.0, 0.3)",f,,,,,,,,,,,,,,,,,,,,,,,,,0,0,0,0,2,20,68,7,,,,,,,,,,,,,,,,,,,,,,,,,,,,,,,,,,,,,,1363.3468211999862,1363.3468211999862,1363.3468211999862,1363.3468211999862,1363.3468211999862,f,1,1.7095421999692917,,,,,,,,,,,,,,,,,,,,1365.0668049000087,1365.5717351000058,,,230624_lax,女,小学,8,001,2023-06-24_16h22.26.389,nalin_IRAP,2023.1.2,119.9656418857924,
"恭喜，你已达成80%正确率，可以继续实验

~请按空格键进入测试阶段~",愉悦,"(0.0, -0.15)",f,,,,,,,,,,,,,,,,,,,,,,,,,0,0,0,0,2,21,69,14,,,,,,,,,,,,,,,,,,,,,,,,,,,,,,,,,,,,,,1365.5717351000058,1365.5717351000058,1365.5717351000058,1365.5717351000058,1365.5717351000058,f,1,5.175666600000113,,,,,,,,,,,,,,,,,,,,1370.7581247999915,1371.2634625000064,,,230624_lax,女,小学,8,001,2023-06-24_16h22.26.389,nalin_IRAP,2023.1.2,119.9656418857924,
"恭喜，你已达成80%正确率，可以继续实验

~请按空格键进入测试阶段~",愁苦,"(0.0, 0.3)",f,,,,,,,,,,,,,,,,,,,,,,,,,0,0,0,0,2,22,70,11,,,,,,,,,,,,,,,,,,,,,,,,,,,,,,,,,,,,,,1371.2634625000064,1371.2634625000064,1371.2634625000064,1371.2634625000064,1371.2634625000064,f,1,10.782093000016175,,,,,,,,,,,,,,,,,,,,1382.0572268000105,,,,230624_lax,女,小学,8,001,2023-06-24_16h22.26.389,nalin_IRAP,2023.1.2,119.9656418857924,
"恭喜，你已达成80%正确率，可以继续实验

~请按空格键进入测试阶段~",喜悦,"(0.0, -0.15)",f,,,,,,,,,,,,,,,,,,,,,,,,,0,0,0,0,2,23,71,16,,,,,,,,,,,,,,,,,,,,,,,,,,,,,,,,,,,,,,1382.5659422000172,1382.5659422000172,1382.5659422000172,1382.5659422000172,1382.5659422000172,f,1,9.228775199968368,,,,,,,,,,,,,,,,,,,,1391.8088833999936,1392.3142770000268,,,230624_lax,女,小学,8,001,2023-06-24_16h22.26.389,nalin_IRAP,2023.1.2,119.9656418857924,
"恭喜，你已达成80%正确率，可以继续实验

~请按空格键进入测试阶段~",难过,"(0.0, -0.15)",j,,,,,,,,,,,,,,,,,,,,,,,,,0,0,0,0,3,0,72,20,,,,,,,,,,,,,,,,,,,,,,,,,,,,,,,,,,,,,,1392.3142770000268,1392.3142770000268,1392.3142770000268,1392.3142770000268,1392.3142770000268,j,1,3.270020399999339,,,,,,,,,,,,,,,,,,,,1395.5988526000292,,,,230624_lax,女,小学,8,001,2023-06-24_16h22.26.389,nalin_IRAP,2023.1.2,119.9656418857924,
"恭喜，你已达成80%正确率，可以继续实验

~请按空格键进入测试阶段~",伤心,"(0.0, -0.15)",j,,,,,,,,,,,,,,,,,,,,,,,,,0,0,0,0,3,1,73,18,,,,,,,,,,,,,,,,,,,,,,,,,,,,,,,,,,,,,,1396.1052281999728,1396.1052281999728,1396.1052281999728,1396.1052281999728,1396.1052281999728,j,1,0.6209071000339463,,,,,,,,,,,,,,,,,,,,1396.739090099989,,,,230624_lax,女,小学,8,001,2023-06-24_16h22.26.389,nalin_IRAP,2023.1.2,119.9656418857924,
"恭喜，你已达成80%正确率，可以继续实验

~请按空格键进入测试阶段~",伤心,"(0.0, 0.3)",f,,,,,,,,,,,,,,,,,,,,,,,,,0,0,0,0,3,2,74,6,,,,,,,,,,,,,,,,,,,,,,,,,,,,,,,,,,,,,,1397.244747699995,1397.244747699995,1397.244747699995,1397.244747699995,1397.244747699995,f,1,1.787967899988871,,,,,,,,,,,,,,,,,,,,1399.047413400025,,,,230624_lax,女,小学,8,001,2023-06-24_16h22.26.389,nalin_IRAP,2023.1.2,119.9656418857924,
"恭喜，你已达成80%正确率，可以继续实验

~请按空格键进入测试阶段~",快乐,"(0.0, -0.15)",f,,,,,,,,,,,,,,,,,,,,,,,,,0,0,0,0,3,3,75,13,,,,,,,,,,,,,,,,,,,,,,,,,,,,,,,,,,,,,,1399.555506500008,1399.555506500008,1399.555506500008,1399.555506500008,1399.555506500008,f,1,3.125823999987915,,,,,,,,,,,,,,,,,,,,1402.6932153999805,1403.1984376999899,,,230624_lax,女,小学,8,001,2023-06-24_16h22.26.389,nalin_IRAP,2023.1.2,119.9656418857924,
"恭喜，你已达成80%正确率，可以继续实验

~请按空格键进入测试阶段~",喜悦,"(0.0, 0.3)",j,,,,,,,,,,,,,,,,,,,,,,,,,0,0,0,0,3,4,76,4,,,,,,,,,,,,,,,,,,,,,,,,,,,,,,,,,,,,,,1403.1984376999899,1403.1984376999899,1403.1984376999899,1403.1984376999899,1403.1984376999899,j,1,1.7254756999900565,,,,,,,,,,,,,,,,,,,,1404.9349315,1405.438871500024,,,230624_lax,女,小学,8,001,2023-06-24_16h22.26.389,nalin_IRAP,2023.1.2,119.9656418857924,
"恭喜，你已达成80%正确率，可以继续实验

~请按空格键进入测试阶段~",愉快,"(0.0, 0.3)",j,,,,,,,,,,,,,,,,,,,,,,,,,0,0,0,0,3,5,77,5,,,,,,,,,,,,,,,,,,,,,,,,,,,,,,,,,,,,,,1405.438871500024,1405.438871500024,1405.438871500024,1405.438871500024,1405.438871500024,j,1,1.0059719000128098,,,,,,,,,,,,,,,,,,,,1406.453304799972,,,,230624_lax,女,小学,8,001,2023-06-24_16h22.26.389,nalin_IRAP,2023.1.2,119.9656418857924,
"恭喜，你已达成80%正确率，可以继续实验

~请按空格键进入测试阶段~",愁苦,"(0.0, -0.15)",j,,,,,,,,,,,,,,,,,,,,,,,,,0,0,0,0,3,6,78,23,,,,,,,,,,,,,,,,,,,,,,,,,,,,,,,,,,,,,,1406.963644500007,1406.963644500007,1406.963644500007,1406.963644500007,1406.963644500007,j,1,1.4049024999840185,,,,,,,,,,,,,,,,,,,,1408.3799119999749,,,,230624_lax,女,小学,8,001,2023-06-24_16h22.26.389,nalin_IRAP,2023.1.2,119.9656418857924,
"恭喜，你已达成80%正确率，可以继续实验

~请按空格键进入测试阶段~",愉悦,"(0.0, 0.3)",j,,,,,,,,,,,,,,,,,,,,,,,,,0,0,0,0,3,7,79,2,,,,,,,,,,,,,,,,,,,,,,,,,,,,,,,,,,,,,,1408.8876343999873,1408.8876343999873,1408.8876343999873,1408.8876343999873,1408.8876343999873,j,1,1.5920019000186585,,,,,,,,,,,,,,,,,,,,1410.4931571999914,1410.9977014000178,,,230624_lax,女,小学,8,001,2023-06-24_16h22.26.389,nalin_IRAP,2023.1.2,119.9656418857924,
"恭喜，你已达成80%正确率，可以继续实验

~请按空格键进入测试阶段~",欣喜,"(0.0, -0.15)",f,,,,,,,,,,,,,,,,,,,,,,,,,0,0,0,0,3,8,80,15,,,,,,,,,,,,,,,,,,,,,,,,,,,,,,,,,,,,,,1410.9977014000178,1410.9977014000178,1410.9977014000178,1410.9977014000178,1410.9977014000178,f,1,3.177546099992469,,,,,,,,,,,,,,,,,,,,1414.184182099998,1414.6884535999852,,,230624_lax,女,小学,8,001,2023-06-24_16h22.26.389,nalin_IRAP,2023.1.2,119.9656418857924,
"恭喜，你已达成80%正确率，可以继续实验

~请按空格键进入测试阶段~",高兴,"(0.0, 0.3)",j,,,,,,,,,,,,,,,,,,,,,,,,,0,0,0,0,3,9,81,0,,,,,,,,,,,,,,,,,,,,,,,,,,,,,,,,,,,,,,1414.6884535999852,1414.6884535999852,1414.6884535999852,1414.6884535999852,1414.6884535999852,j,1,1.5719187000067905,,,,,,,,,,,,,,,,,,,,1416.2696014000103,,,,230624_lax,女,小学,8,001,2023-06-24_16h22.26.389,nalin_IRAP,2023.1.2,119.9656418857924,
"恭喜，你已达成80%正确率，可以继续实验

~请按空格键进入测试阶段~",愉快,"(0.0, -0.15)",f,,,,,,,,,,,,,,,,,,,,,,,,,0,0,0,0,3,10,82,17,,,,,,,,,,,,,,,,,,,,,,,,,,,,,,,,,,,,,,1416.7800105999922,1416.7800105999922,1416.7800105999922,1416.7800105999922,1416.7800105999922,f,1,2.2501464000088163,,,,,,,,,,,,,,,,,,,,1419.042735999974,1419.545831400028,,,230624_lax,女,小学,8,001,2023-06-24_16h22.26.389,nalin_IRAP,2023.1.2,119.9656418857924,
"恭喜，你已达成80%正确率，可以继续实验

~请按空格键进入测试阶段~",难过,"(0.0, 0.3)",f,,,,,,,,,,,,,,,,,,,,,,,,,0,0,0,0,3,11,83,8,,,,,,,,,,,,,,,,,,,,,,,,,,,,,,,,,,,,,,1419.545831400028,1419.545831400028,1419.545831400028,1419.545831400028,1419.545831400028,j,0,2.273816699977033,,,,,,,,,,,,,,,,,,,,1421.8342967000208,1422.3391937999986,,,230624_lax,女,小学,8,001,2023-06-24_16h22.26.389,nalin_IRAP,2023.1.2,119.9656418857924,
"恭喜，你已达成80%正确率，可以继续实验

~请按空格键进入测试阶段~",失落,"(0.0, -0.15)",j,,,,,,,,,,,,,,,,,,,,,,,,,0,0,0,0,3,12,84,19,,,,,,,,,,,,,,,,,,,,,,,,,,,,,,,,,,,,,,1422.3391937999986,1422.3391937999986,1422.3391937999986,1422.3391937999986,1422.3391937999986,j,1,2.214416100003291,,,,,,,,,,,,,,,,,,,,1424.5687088000122,1425.0712172000203,,,230624_lax,女,小学,8,001,2023-06-24_16h22.26.389,nalin_IRAP,2023.1.2,119.9656418857924,
"恭喜，你已达成80%正确率，可以继续实验

~请按空格键进入测试阶段~",忧郁,"(0.0, 0.3)",f,,,,,,,,,,,,,,,,,,,,,,,,,0,0,0,0,3,13,85,10,,,,,,,,,,,,,,,,,,,,,,,,,,,,,,,,,,,,,,1425.0712172000203,1425.0712172000203,1425.0712172000203,1425.0712172000203,1425.0712172000203,j,0,1.2288381999824196,,,,,,,,,,,,,,,,,,,,1426.3106206000084,,,,230624_lax,女,小学,8,001,2023-06-24_16h22.26.389,nalin_IRAP,2023.1.2,119.9656418857924,
"恭喜，你已达成80%正确率，可以继续实验

~请按空格键进入测试阶段~",快乐,"(0.0, 0.3)",j,,,,,,,,,,,,,,,,,,,,,,,,,0,0,0,0,3,14,86,1,,,,,,,,,,,,,,,,,,,,,,,,,,,,,,,,,,,,,,1426.8217224000255,1426.8217224000255,1426.8217224000255,1426.8217224000255,1426.8217224000255,j,1,1.814408700040076,,,,,,,,,,,,,,,,,,,,1428.651468200027,1429.1556513999822,,,230624_lax,女,小学,8,001,2023-06-24_16h22.26.389,nalin_IRAP,2023.1.2,119.9656418857924,
"恭喜，你已达成80%正确率，可以继续实验

~请按空格键进入测试阶段~",愁苦,"(0.0, 0.3)",f,,,,,,,,,,,,,,,,,,,,,,,,,0,0,0,0,3,15,87,11,,,,,,,,,,,,,,,,,,,,,,,,,,,,,,,,,,,,,,1429.1556513999822,1429.1556513999822,1429.1556513999822,1429.1556513999822,1429.1556513999822,j,0,0.9657877000281587,,,,,,,,,,,,,,,,,,,,1430.1342830000212,1430.638957999996,,,230624_lax,女,小学,8,001,2023-06-24_16h22.26.389,nalin_IRAP,2023.1.2,119.9656418857924,
"恭喜，你已达成80%正确率，可以继续实验

